"workerid","rt","trial_type","trial_num","name","lexant","gender","endpoint_high","morphant","endpoint_low","adjective","referent","adjective_type","antonym_type","positive","slider_position","response"
0,15410,"four_sliders",1,"Lucas","cold","male","the most affectionate<br>person in the world","unaffectionate","the most cold<br>person in the world","affectionate","person","positive","lexant","affectionate",1,0.85
0,15410,"four_sliders",1,"Stephen","cold","male","the most affectionate<br>person in the world","unaffectionate","the most cold<br>person in the world","not cold","person","neg_lexant","lexant","affectionate",2,0.5
0,15410,"four_sliders",1,"Gabriel","cold","male","the most affectionate<br>person in the world","unaffectionate","the most cold<br>person in the world","cold","person","lexant","lexant","affectionate",3,0.11
0,15410,"four_sliders",1,"Amber","cold","female","the most affectionate<br>person in the world","unaffectionate","the most cold<br>person in the world","not affectionate","person","neg_positive","lexant","affectionate",4,0.3
0,8940,"four_sliders",2,"Melinda","ugly","female","the most attractive<br>person in the world","unattractive","the most ugly<br>person in the world","attractive","person","positive","lexant","attractive",1,0.86
0,8940,"four_sliders",2,"Stephanie","ugly","female","the most attractive<br>person in the world","unattractive","the most ugly<br>person in the world","not ugly","person","neg_lexant","lexant","attractive",2,0.5
0,8940,"four_sliders",2,"Laura","ugly","female","the most attractive<br>person in the world","unattractive","the most ugly<br>person in the world","not attractive","person","neg_positive","lexant","attractive",3,0.31
0,8940,"four_sliders",2,"Andrew","ugly","male","the most attractive<br>person in the world","unattractive","the most ugly<br>person in the world","ugly","person","lexant","lexant","attractive",4,0.12
0,8605,"four_sliders",3,"Monica","fake","female","the most sincere<br>person in the world","insincere","the most fake<br>person in the world","not fake","person","neg_lexant","lexant","sincere",1,0.48
0,8605,"four_sliders",3,"Cameron","fake","male","the most sincere<br>person in the world","insincere","the most fake<br>person in the world","sincere","person","positive","lexant","sincere",2,0.94
0,8605,"four_sliders",3,"Brooke","fake","female","the most sincere<br>person in the world","insincere","the most fake<br>person in the world","not sincere","person","neg_positive","lexant","sincere",3,0.2
0,8605,"four_sliders",3,"Mason","fake","male","the most sincere<br>person in the world","insincere","the most fake<br>person in the world","fake","person","lexant","lexant","sincere",4,0.09
0,8129,"four_sliders",4,"Daniel","cruel","male","the most kind<br>person in the world","unkind","the most cruel<br>person in the world","not kind","person","neg_positive","lexant","kind",1,0.21
0,8129,"four_sliders",4,"Diana","cruel","female","the most kind<br>person in the world","unkind","the most cruel<br>person in the world","cruel","person","lexant","lexant","kind",2,0.09
0,8129,"four_sliders",4,"Alexander","cruel","male","the most kind<br>person in the world","unkind","the most cruel<br>person in the world","not cruel","person","neg_lexant","lexant","kind",3,0.51
0,8129,"four_sliders",4,"William","cruel","male","the most kind<br>person in the world","unkind","the most cruel<br>person in the world","kind","person","positive","lexant","kind",4,0.72
0,10272,"four_sliders",5,"Tom","ignorant","male","the most educated<br>person in the world","uneducated","the most ignorant<br>person in the world","educated","person","positive","lexant","educated",1,0.76
0,10272,"four_sliders",5,"Jeremy","ignorant","male","the most educated<br>person in the world","uneducated","the most ignorant<br>person in the world","ignorant","person","lexant","lexant","educated",2,0.11
0,10272,"four_sliders",5,"Nicole","ignorant","female","the most educated<br>person in the world","uneducated","the most ignorant<br>person in the world","not ignorant","person","neg_lexant","lexant","educated",3,0.49
0,10272,"four_sliders",5,"Maya","ignorant","female","the most educated<br>person in the world","uneducated","the most ignorant<br>person in the world","not educated","person","neg_positive","lexant","educated",4,0.28
0,10908,"four_sliders",6,"Kim","childish","female","the most mature<br>person in the world","immature","the most childish<br>person in the world","not mature","person","neg_positive","lexant","mature",1,0.25
0,10908,"four_sliders",6,"Veronica","childish","female","the most mature<br>person in the world","immature","the most childish<br>person in the world","not childish","person","neg_lexant","lexant","mature",2,0.64
0,10908,"four_sliders",6,"Sophia","childish","female","the most mature<br>person in the world","immature","the most childish<br>person in the world","childish","person","lexant","lexant","mature",3,0.09
0,10908,"four_sliders",6,"Julia","childish","female","the most mature<br>person in the world","immature","the most childish<br>person in the world","mature","person","positive","lexant","mature",4,0.87
0,8632,"four_sliders",7,"Noah","flaky","male","the most reliable<br>person in the world","unreliable","the most flaky<br>person in the world","not flaky","person","neg_lexant","lexant","reliable",1,0.58
0,8632,"four_sliders",7,"Alison","flaky","female","the most reliable<br>person in the world","unreliable","the most flaky<br>person in the world","flaky","person","lexant","lexant","reliable",2,0.08
0,8632,"four_sliders",7,"Eric","flaky","male","the most reliable<br>person in the world","unreliable","the most flaky<br>person in the world","not reliable","person","neg_positive","lexant","reliable",3,0.21
0,8632,"four_sliders",7,"John","flaky","male","the most reliable<br>person in the world","unreliable","the most flaky<br>person in the world","reliable","person","positive","lexant","reliable",4,0.94
0,9379,"four_sliders",8,"Angela","stingy","female","the most generous<br>person in the world","ungenerous","the most stingy<br>person in the world","generous","person","positive","lexant","generous",1,0.9
0,9379,"four_sliders",8,"Emma","stingy","female","the most generous<br>person in the world","ungenerous","the most stingy<br>person in the world","not stingy","person","neg_lexant","lexant","generous",2,0.77
0,9379,"four_sliders",8,"Anthony","stingy","male","the most generous<br>person in the world","ungenerous","the most stingy<br>person in the world","stingy","person","lexant","lexant","generous",3,0.06
0,9379,"four_sliders",8,"David","stingy","male","the most generous<br>person in the world","ungenerous","the most stingy<br>person in the world","not generous","person","neg_positive","lexant","generous",4,0.45
0,10233,"four_sliders",9,"Kathleen","bigoted","female","the most tolerant<br>person in the world","intolerant","the most bigoted<br>person in the world","not bigoted","person","neg_lexant","lexant","tolerant",1,0.6
0,10233,"four_sliders",9,"Lee","bigoted","male","the most tolerant<br>person in the world","intolerant","the most bigoted<br>person in the world","bigoted","person","lexant","lexant","tolerant",2,0.1
0,10233,"four_sliders",9,"Jacob","bigoted","male","the most tolerant<br>person in the world","intolerant","the most bigoted<br>person in the world","not tolerant","person","neg_positive","lexant","tolerant",3,0.29
0,10233,"four_sliders",9,"Liam","bigoted","male","the most tolerant<br>person in the world","intolerant","the most bigoted<br>person in the world","tolerant","person","positive","lexant","tolerant",4,0.94
0,8937,"four_sliders",10,"Jackie","resentful","female","the most forgiving<br>person in the world","unforgiving","the most resentful<br>person in the world","not forgiving","person","neg_positive","lexant","forgiving",1,0.14
0,8937,"four_sliders",10,"Mia","resentful","female","the most forgiving<br>person in the world","unforgiving","the most resentful<br>person in the world","resentful","person","lexant","lexant","forgiving",2,0.07
0,8937,"four_sliders",10,"Michael","resentful","male","the most forgiving<br>person in the world","unforgiving","the most resentful<br>person in the world","forgiving","person","positive","lexant","forgiving",3,0.93
0,8937,"four_sliders",10,"Charles","resentful","male","the most forgiving<br>person in the world","unforgiving","the most resentful<br>person in the world","not resentful","person","neg_lexant","lexant","forgiving",4,0.72
0,6985,"four_sliders",11,"Dylan","boring","male","the most interesting<br>person in the world","uninteresting","the most boring<br>person in the world","not interesting","person","neg_positive","lexant","interesting",1,0.14
0,6985,"four_sliders",11,"Greg","boring","male","the most interesting<br>person in the world","uninteresting","the most boring<br>person in the world","not boring","person","neg_lexant","lexant","interesting",2,0.6
0,6985,"four_sliders",11,"Sasha","boring","female","the most interesting<br>person in the world","uninteresting","the most boring<br>person in the world","boring","person","lexant","lexant","interesting",3,0.08
0,6985,"four_sliders",11,"Michelle","boring","female","the most interesting<br>person in the world","uninteresting","the most boring<br>person in the world","interesting","person","positive","lexant","interesting",4,0.84
0,7006,"four_sliders",12,"Jennifer","wasteful","female","the most resourceful<br>person in the world","unresourceful","the most wasteful<br>person in the world","resourceful","person","positive","lexant","resourceful",1,0.86
0,7006,"four_sliders",12,"Claire","wasteful","female","the most resourceful<br>person in the world","unresourceful","the most wasteful<br>person in the world","not wasteful","person","neg_lexant","lexant","resourceful",2,0.74
0,7006,"four_sliders",12,"Alicia","wasteful","female","the most resourceful<br>person in the world","unresourceful","the most wasteful<br>person in the world","wasteful","person","lexant","lexant","resourceful",3,0.05
0,7006,"four_sliders",12,"Samuel","wasteful","male","the most resourceful<br>person in the world","unresourceful","the most wasteful<br>person in the world","not resourceful","person","neg_positive","lexant","resourceful",4,0.41
1,28126,"four_sliders",1,"Diana","traitorous","female","the most patriotic<br>person in the world","unpatriotic","the most traitorous<br>person in the world","not patriotic","person","neg_positive","lexant","patriotic",1,0.21
1,28126,"four_sliders",1,"Lucas","traitorous","male","the most patriotic<br>person in the world","unpatriotic","the most traitorous<br>person in the world","patriotic","person","positive","lexant","patriotic",2,0.78
1,28126,"four_sliders",1,"Anthony","traitorous","male","the most patriotic<br>person in the world","unpatriotic","the most traitorous<br>person in the world","not traitorous","person","neg_lexant","lexant","patriotic",3,0.68
1,28126,"four_sliders",1,"Sophia","traitorous","female","the most patriotic<br>person in the world","unpatriotic","the most traitorous<br>person in the world","traitorous","person","lexant","lexant","patriotic",4,0.21
1,13640,"four_sliders",2,"Andrew","cold","male","the most affectionate<br>person in the world","unaffectionate","the most cold<br>person in the world","not cold","person","neg_lexant","lexant","affectionate",1,0.81
1,13640,"four_sliders",2,"Kim","cold","female","the most affectionate<br>person in the world","unaffectionate","the most cold<br>person in the world","not affectionate","person","neg_positive","lexant","affectionate",2,0.3
1,13640,"four_sliders",2,"Tom","cold","male","the most affectionate<br>person in the world","unaffectionate","the most cold<br>person in the world","affectionate","person","positive","lexant","affectionate",3,0.78
1,13640,"four_sliders",2,"Julia","cold","female","the most affectionate<br>person in the world","unaffectionate","the most cold<br>person in the world","cold","person","lexant","lexant","affectionate",4,0.2
1,7367,"four_sliders",3,"Eric","childish","male","the most mature<br>person in the world","immature","the most childish<br>person in the world","mature","person","positive","lexant","mature",1,0.82
1,7367,"four_sliders",3,"Charles","childish","male","the most mature<br>person in the world","immature","the most childish<br>person in the world","not childish","person","neg_lexant","lexant","mature",2,0.76
1,7367,"four_sliders",3,"Alicia","childish","female","the most mature<br>person in the world","immature","the most childish<br>person in the world","childish","person","lexant","lexant","mature",3,0.22
1,7367,"four_sliders",3,"Mason","childish","male","the most mature<br>person in the world","immature","the most childish<br>person in the world","not mature","person","neg_positive","lexant","mature",4,0.33
1,10807,"four_sliders",4,"Monica","cruel","female","the most kind<br>person in the world","unkind","the most cruel<br>person in the world","kind","person","positive","lexant","kind",1,0.84
1,10807,"four_sliders",4,"Alexander","cruel","male","the most kind<br>person in the world","unkind","the most cruel<br>person in the world","cruel","person","lexant","lexant","kind",2,0.26
1,10807,"four_sliders",4,"Liam","cruel","male","the most kind<br>person in the world","unkind","the most cruel<br>person in the world","not cruel","person","neg_lexant","lexant","kind",3,0.73
1,10807,"four_sliders",4,"Kathleen","cruel","female","the most kind<br>person in the world","unkind","the most cruel<br>person in the world","not kind","person","neg_positive","lexant","kind",4,0.31
1,7280,"four_sliders",5,"Laura","flaky","female","the most reliable<br>person in the world","unreliable","the most flaky<br>person in the world","flaky","person","lexant","lexant","reliable",1,0.27
1,7280,"four_sliders",5,"Cameron","flaky","male","the most reliable<br>person in the world","unreliable","the most flaky<br>person in the world","not flaky","person","neg_lexant","lexant","reliable",2,0.81
1,7280,"four_sliders",5,"David","flaky","male","the most reliable<br>person in the world","unreliable","the most flaky<br>person in the world","reliable","person","positive","lexant","reliable",3,0.87
1,7280,"four_sliders",5,"Jackie","flaky","female","the most reliable<br>person in the world","unreliable","the most flaky<br>person in the world","not reliable","person","neg_positive","lexant","reliable",4,0.37
1,9622,"four_sliders",6,"Amber","boring","female","the most interesting<br>person in the world","uninteresting","the most boring<br>person in the world","interesting","person","positive","lexant","interesting",1,0.74
1,9622,"four_sliders",6,"Melinda","boring","female","the most interesting<br>person in the world","uninteresting","the most boring<br>person in the world","boring","person","lexant","lexant","interesting",2,0.13
1,9622,"four_sliders",6,"Gabriel","boring","male","the most interesting<br>person in the world","uninteresting","the most boring<br>person in the world","not boring","person","neg_lexant","lexant","interesting",3,0.57
1,9622,"four_sliders",6,"Greg","boring","male","the most interesting<br>person in the world","uninteresting","the most boring<br>person in the world","not interesting","person","neg_positive","lexant","interesting",4,0.18
1,10823,"four_sliders",7,"Jennifer","rude","female","the most polite<br>person in the world","impolite","the most rude<br>person in the world","polite","person","positive","lexant","polite",1,0.73
1,10823,"four_sliders",7,"Brooke","rude","female","the most polite<br>person in the world","impolite","the most rude<br>person in the world","rude","person","lexant","lexant","polite",2,0.32
1,10823,"four_sliders",7,"Michelle","rude","female","the most polite<br>person in the world","impolite","the most rude<br>person in the world","not polite","person","neg_positive","lexant","polite",3,0.28
1,10823,"four_sliders",7,"Daniel","rude","male","the most polite<br>person in the world","impolite","the most rude<br>person in the world","not rude","person","neg_lexant","lexant","polite",4,0.56
1,11072,"four_sliders",8,"Mia","crazy","female","the most rational<br>person in the world","irrational","the most crazy<br>person in the world","not rational","person","neg_positive","lexant","rational",1,0.18
1,11072,"four_sliders",8,"Angela","crazy","female","the most rational<br>person in the world","irrational","the most crazy<br>person in the world","not crazy","person","neg_lexant","lexant","rational",2,0.76
1,11072,"four_sliders",8,"Emma","crazy","female","the most rational<br>person in the world","irrational","the most crazy<br>person in the world","crazy","person","lexant","lexant","rational",3,0.32
1,11072,"four_sliders",8,"William","crazy","male","the most rational<br>person in the world","irrational","the most crazy<br>person in the world","rational","person","positive","lexant","rational",4,0.72
1,39031,"four_sliders",9,"Michael","lazy","male","the most ambitious<br>person in the world","unambitious","the most lazy<br>person in the world","not lazy","person","neg_lexant","lexant","ambitious",1,0.87
1,39031,"four_sliders",9,"Stephanie","lazy","female","the most ambitious<br>person in the world","unambitious","the most lazy<br>person in the world","ambitious","person","positive","lexant","ambitious",2,0.94
1,39031,"four_sliders",9,"Sasha","lazy","female","the most ambitious<br>person in the world","unambitious","the most lazy<br>person in the world","not ambitious","person","neg_positive","lexant","ambitious",3,0.26
1,39031,"four_sliders",9,"Stephen","lazy","male","the most ambitious<br>person in the world","unambitious","the most lazy<br>person in the world","lazy","person","lexant","lexant","ambitious",4,0.22
1,5150,"four_sliders",10,"Alison","ignorant","female","the most educated<br>person in the world","uneducated","the most ignorant<br>person in the world","educated","person","positive","lexant","educated",1,0.82
1,5150,"four_sliders",10,"Dylan","ignorant","male","the most educated<br>person in the world","uneducated","the most ignorant<br>person in the world","ignorant","person","lexant","lexant","educated",2,0.27
1,5150,"four_sliders",10,"Jacob","ignorant","male","the most educated<br>person in the world","uneducated","the most ignorant<br>person in the world","not ignorant","person","neg_lexant","lexant","educated",3,0.71
1,5150,"four_sliders",10,"John","ignorant","male","the most educated<br>person in the world","uneducated","the most ignorant<br>person in the world","not educated","person","neg_positive","lexant","educated",4,0.3
1,6511,"four_sliders",11,"Maya","sad","female","the most happy<br>person in the world","unhappy","the most sad<br>person in the world","not sad","person","neg_lexant","lexant","happy",1,0.77
1,6511,"four_sliders",11,"Nicole","sad","female","the most happy<br>person in the world","unhappy","the most sad<br>person in the world","happy","person","positive","lexant","happy",2,0.82
1,6511,"four_sliders",11,"Lee","sad","male","the most happy<br>person in the world","unhappy","the most sad<br>person in the world","not happy","person","neg_positive","lexant","happy",3,0.26
1,6511,"four_sliders",11,"Jeremy","sad","male","the most happy<br>person in the world","unhappy","the most sad<br>person in the world","sad","person","lexant","lexant","happy",4,0.24
1,11449,"four_sliders",12,"Claire","stupid","female","the most intelligent<br>person in the world","unintelligent","the most stupid<br>person in the world","not intelligent","person","neg_positive","lexant","intelligent",1,0.28
1,11449,"four_sliders",12,"Veronica","stupid","female","the most intelligent<br>person in the world","unintelligent","the most stupid<br>person in the world","intelligent","person","positive","lexant","intelligent",2,0.74
1,11449,"four_sliders",12,"Noah","stupid","male","the most intelligent<br>person in the world","unintelligent","the most stupid<br>person in the world","stupid","person","lexant","lexant","intelligent",3,0.32
1,11449,"four_sliders",12,"Samuel","stupid","male","the most intelligent<br>person in the world","unintelligent","the most stupid<br>person in the world","not stupid","person","neg_lexant","lexant","intelligent",4,0.74
2,28589,"four_sliders",1,"Eric","deceitful","male","the most honest<br>person in the world","dishonest","the most deceitful<br>person in the world","deceitful","person","lexant","lexant","honest",1,0.01
2,28589,"four_sliders",1,"Daniel","deceitful","male","the most honest<br>person in the world","dishonest","the most deceitful<br>person in the world","not deceitful","person","neg_lexant","lexant","honest",2,1
2,28589,"four_sliders",1,"Alexander","deceitful","male","the most honest<br>person in the world","dishonest","the most deceitful<br>person in the world","not honest","person","neg_positive","lexant","honest",3,0.01
2,28589,"four_sliders",1,"Kim","deceitful","female","the most honest<br>person in the world","dishonest","the most deceitful<br>person in the world","honest","person","positive","lexant","honest",4,0.99
2,10357,"four_sliders",2,"Charles","crazy","male","the most rational<br>person in the world","irrational","the most crazy<br>person in the world","not rational","person","neg_positive","lexant","rational",1,0.19
2,10357,"four_sliders",2,"Dylan","crazy","male","the most rational<br>person in the world","irrational","the most crazy<br>person in the world","not crazy","person","neg_lexant","lexant","rational",2,0.8
2,10357,"four_sliders",2,"Samuel","crazy","male","the most rational<br>person in the world","irrational","the most crazy<br>person in the world","rational","person","positive","lexant","rational",3,0.91
2,10357,"four_sliders",2,"Laura","crazy","female","the most rational<br>person in the world","irrational","the most crazy<br>person in the world","crazy","person","lexant","lexant","rational",4,0.09
2,10878,"four_sliders",3,"David","childish","male","the most mature<br>person in the world","immature","the most childish<br>person in the world","not mature","person","neg_positive","lexant","mature",1,0.18
2,10878,"four_sliders",3,"Melinda","childish","female","the most mature<br>person in the world","immature","the most childish<br>person in the world","mature","person","positive","lexant","mature",2,0.85
2,10878,"four_sliders",3,"Nicole","childish","female","the most mature<br>person in the world","immature","the most childish<br>person in the world","not childish","person","neg_lexant","lexant","mature",3,0.77
2,10878,"four_sliders",3,"Alicia","childish","female","the most mature<br>person in the world","immature","the most childish<br>person in the world","childish","person","lexant","lexant","mature",4,0.09
2,7837,"four_sliders",4,"Liam","resentful","male","the most forgiving<br>person in the world","unforgiving","the most resentful<br>person in the world","not forgiving","person","neg_positive","lexant","forgiving",1,0.14
2,7837,"four_sliders",4,"Emma","resentful","female","the most forgiving<br>person in the world","unforgiving","the most resentful<br>person in the world","forgiving","person","positive","lexant","forgiving",2,0.86
2,7837,"four_sliders",4,"Claire","resentful","female","the most forgiving<br>person in the world","unforgiving","the most resentful<br>person in the world","not resentful","person","neg_lexant","lexant","forgiving",3,0.87
2,7837,"four_sliders",4,"Mia","resentful","female","the most forgiving<br>person in the world","unforgiving","the most resentful<br>person in the world","resentful","person","lexant","lexant","forgiving",4,0.09
2,8631,"four_sliders",5,"Jacob","flaky","male","the most reliable<br>person in the world","unreliable","the most flaky<br>person in the world","not flaky","person","neg_lexant","lexant","reliable",1,0.9
2,8631,"four_sliders",5,"Brooke","flaky","female","the most reliable<br>person in the world","unreliable","the most flaky<br>person in the world","not reliable","person","neg_positive","lexant","reliable",2,0.1
2,8631,"four_sliders",5,"Diana","flaky","female","the most reliable<br>person in the world","unreliable","the most flaky<br>person in the world","reliable","person","positive","lexant","reliable",3,0.89
2,8631,"four_sliders",5,"Maya","flaky","female","the most reliable<br>person in the world","unreliable","the most flaky<br>person in the world","flaky","person","lexant","lexant","reliable",4,0.11
2,8672,"four_sliders",6,"Anthony","bigoted","male","the most tolerant<br>person in the world","intolerant","the most bigoted<br>person in the world","not tolerant","person","neg_positive","lexant","tolerant",1,0.06
2,8672,"four_sliders",6,"William","bigoted","male","the most tolerant<br>person in the world","intolerant","the most bigoted<br>person in the world","not bigoted","person","neg_lexant","lexant","tolerant",2,0.87
2,8672,"four_sliders",6,"Andrew","bigoted","male","the most tolerant<br>person in the world","intolerant","the most bigoted<br>person in the world","tolerant","person","positive","lexant","tolerant",3,0.88
2,8672,"four_sliders",6,"Monica","bigoted","female","the most tolerant<br>person in the world","intolerant","the most bigoted<br>person in the world","bigoted","person","lexant","lexant","tolerant",4,0.07
2,6408,"four_sliders",7,"Alison","cruel","female","the most kind<br>person in the world","unkind","the most cruel<br>person in the world","cruel","person","lexant","lexant","kind",1,0.11
2,6408,"four_sliders",7,"Angela","cruel","female","the most kind<br>person in the world","unkind","the most cruel<br>person in the world","not cruel","person","neg_lexant","lexant","kind",2,0.86
2,6408,"four_sliders",7,"Julia","cruel","female","the most kind<br>person in the world","unkind","the most cruel<br>person in the world","not kind","person","neg_positive","lexant","kind",3,0.1
2,6408,"four_sliders",7,"Tom","cruel","male","the most kind<br>person in the world","unkind","the most cruel<br>person in the world","kind","person","positive","lexant","kind",4,0.88
2,5463,"four_sliders",8,"Cameron","sad","male","the most happy<br>person in the world","unhappy","the most sad<br>person in the world","sad","person","lexant","lexant","happy",1,0.1
2,5463,"four_sliders",8,"Stephen","sad","male","the most happy<br>person in the world","unhappy","the most sad<br>person in the world","not happy","person","neg_positive","lexant","happy",2,0.13
2,5463,"four_sliders",8,"John","sad","male","the most happy<br>person in the world","unhappy","the most sad<br>person in the world","happy","person","positive","lexant","happy",3,0.86
2,5463,"four_sliders",8,"Mason","sad","male","the most happy<br>person in the world","unhappy","the most sad<br>person in the world","not sad","person","neg_lexant","lexant","happy",4,0.87
2,8542,"four_sliders",9,"Jennifer","stingy","female","the most generous<br>person in the world","ungenerous","the most stingy<br>person in the world","generous","person","positive","lexant","generous",1,0.88
2,8542,"four_sliders",9,"Sophia","stingy","female","the most generous<br>person in the world","ungenerous","the most stingy<br>person in the world","not generous","person","neg_positive","lexant","generous",2,0.09
2,8542,"four_sliders",9,"Veronica","stingy","female","the most generous<br>person in the world","ungenerous","the most stingy<br>person in the world","not stingy","person","neg_lexant","lexant","generous",3,0.89
2,8542,"four_sliders",9,"Michelle","stingy","female","the most generous<br>person in the world","ungenerous","the most stingy<br>person in the world","stingy","person","lexant","lexant","generous",4,0.09
2,5847,"four_sliders",10,"Stephanie","ugly","female","the most attractive<br>person in the world","unattractive","the most ugly<br>person in the world","ugly","person","lexant","lexant","attractive",1,0.11
2,5847,"four_sliders",10,"Jackie","ugly","female","the most attractive<br>person in the world","unattractive","the most ugly<br>person in the world","attractive","person","positive","lexant","attractive",2,0.87
2,5847,"four_sliders",10,"Jeremy","ugly","male","the most attractive<br>person in the world","unattractive","the most ugly<br>person in the world","not attractive","person","neg_positive","lexant","attractive",3,0.1
2,5847,"four_sliders",10,"Gabriel","ugly","male","the most attractive<br>person in the world","unattractive","the most ugly<br>person in the world","not ugly","person","neg_lexant","lexant","attractive",4,0.88
2,7287,"four_sliders",11,"Sasha","stupid","female","the most intelligent<br>person in the world","unintelligent","the most stupid<br>person in the world","not intelligent","person","neg_positive","lexant","intelligent",1,0.11
2,7287,"four_sliders",11,"Michael","stupid","male","the most intelligent<br>person in the world","unintelligent","the most stupid<br>person in the world","intelligent","person","positive","lexant","intelligent",2,0.89
2,7287,"four_sliders",11,"Lee","stupid","male","the most intelligent<br>person in the world","unintelligent","the most stupid<br>person in the world","not stupid","person","neg_lexant","lexant","intelligent",3,0.9
2,7287,"four_sliders",11,"Amber","stupid","female","the most intelligent<br>person in the world","unintelligent","the most stupid<br>person in the world","stupid","person","lexant","lexant","intelligent",4,0.09
2,5485,"four_sliders",12,"Kathleen","lazy","female","the most ambitious<br>person in the world","unambitious","the most lazy<br>person in the world","ambitious","person","positive","lexant","ambitious",1,0.88
2,5485,"four_sliders",12,"Noah","lazy","male","the most ambitious<br>person in the world","unambitious","the most lazy<br>person in the world","not lazy","person","neg_lexant","lexant","ambitious",2,0.88
2,5485,"four_sliders",12,"Greg","lazy","male","the most ambitious<br>person in the world","unambitious","the most lazy<br>person in the world","not ambitious","person","neg_positive","lexant","ambitious",3,0.08
2,5485,"four_sliders",12,"Lucas","lazy","male","the most ambitious<br>person in the world","unambitious","the most lazy<br>person in the world","lazy","person","lexant","lexant","ambitious",4,0.1
3,17687,"four_sliders",1,"David","wasteful","male","the most resourceful<br>person in the world","unresourceful","the most wasteful<br>person in the world","wasteful","person","lexant","lexant","resourceful",1,0.01
3,17687,"four_sliders",1,"Alicia","wasteful","female","the most resourceful<br>person in the world","unresourceful","the most wasteful<br>person in the world","resourceful","person","positive","lexant","resourceful",2,0.99
3,17687,"four_sliders",1,"Liam","wasteful","male","the most resourceful<br>person in the world","unresourceful","the most wasteful<br>person in the world","not wasteful","person","neg_lexant","lexant","resourceful",3,0.99
3,17687,"four_sliders",1,"Sophia","wasteful","female","the most resourceful<br>person in the world","unresourceful","the most wasteful<br>person in the world","not resourceful","person","neg_positive","lexant","resourceful",4,0.01
3,14116,"four_sliders",2,"Kim","ugly","female","the most attractive<br>person in the world","unattractive","the most ugly<br>person in the world","ugly","person","lexant","lexant","attractive",1,0.01
3,14116,"four_sliders",2,"John","ugly","male","the most attractive<br>person in the world","unattractive","the most ugly<br>person in the world","not ugly","person","neg_lexant","lexant","attractive",2,0.99
3,14116,"four_sliders",2,"Maya","ugly","female","the most attractive<br>person in the world","unattractive","the most ugly<br>person in the world","attractive","person","positive","lexant","attractive",3,0.8
3,14116,"four_sliders",2,"Alexander","ugly","male","the most attractive<br>person in the world","unattractive","the most ugly<br>person in the world","not attractive","person","neg_positive","lexant","attractive",4,0.15
3,11981,"four_sliders",3,"Stephanie","ignorant","female","the most educated<br>person in the world","uneducated","the most ignorant<br>person in the world","not educated","person","neg_positive","lexant","educated",1,0.13
3,11981,"four_sliders",3,"Noah","ignorant","male","the most educated<br>person in the world","uneducated","the most ignorant<br>person in the world","educated","person","positive","lexant","educated",2,0.8
3,11981,"four_sliders",3,"Alison","ignorant","female","the most educated<br>person in the world","uneducated","the most ignorant<br>person in the world","ignorant","person","lexant","lexant","educated",3,0.11
3,11981,"four_sliders",3,"Mason","ignorant","male","the most educated<br>person in the world","uneducated","the most ignorant<br>person in the world","not ignorant","person","neg_lexant","lexant","educated",4,0.92
3,12003,"four_sliders",4,"Samuel","crazy","male","the most rational<br>person in the world","irrational","the most crazy<br>person in the world","not rational","person","neg_positive","lexant","rational",1,0.12
3,12003,"four_sliders",4,"Julia","crazy","female","the most rational<br>person in the world","irrational","the most crazy<br>person in the world","rational","person","positive","lexant","rational",2,0.88
3,12003,"four_sliders",4,"Angela","crazy","female","the most rational<br>person in the world","irrational","the most crazy<br>person in the world","not crazy","person","neg_lexant","lexant","rational",3,0.88
3,12003,"four_sliders",4,"Michelle","crazy","female","the most rational<br>person in the world","irrational","the most crazy<br>person in the world","crazy","person","lexant","lexant","rational",4,0.12
3,11392,"four_sliders",5,"Sasha","sad","female","the most happy<br>person in the world","unhappy","the most sad<br>person in the world","happy","person","positive","lexant","happy",1,0.81
3,11392,"four_sliders",5,"Veronica","sad","female","the most happy<br>person in the world","unhappy","the most sad<br>person in the world","sad","person","lexant","lexant","happy",2,0.11
3,11392,"four_sliders",5,"Dylan","sad","male","the most happy<br>person in the world","unhappy","the most sad<br>person in the world","not happy","person","neg_positive","lexant","happy",3,0.11
3,11392,"four_sliders",5,"Anthony","sad","male","the most happy<br>person in the world","unhappy","the most sad<br>person in the world","not sad","person","neg_lexant","lexant","happy",4,0.84
3,7347,"four_sliders",6,"Melinda","boring","female","the most interesting<br>person in the world","uninteresting","the most boring<br>person in the world","not interesting","person","neg_positive","lexant","interesting",1,0.14
3,7347,"four_sliders",6,"Amber","boring","female","the most interesting<br>person in the world","uninteresting","the most boring<br>person in the world","interesting","person","positive","lexant","interesting",2,0.81
3,7347,"four_sliders",6,"Andrew","boring","male","the most interesting<br>person in the world","uninteresting","the most boring<br>person in the world","boring","person","lexant","lexant","interesting",3,0.16
3,7347,"four_sliders",6,"Nicole","boring","female","the most interesting<br>person in the world","uninteresting","the most boring<br>person in the world","not boring","person","neg_lexant","lexant","interesting",4,0.83
3,13409,"four_sliders",7,"Mia","stupid","female","the most intelligent<br>person in the world","unintelligent","the most stupid<br>person in the world","not intelligent","person","neg_positive","lexant","intelligent",1,0.14
3,13409,"four_sliders",7,"Lee","stupid","male","the most intelligent<br>person in the world","unintelligent","the most stupid<br>person in the world","not stupid","person","neg_lexant","lexant","intelligent",2,0.84
3,13409,"four_sliders",7,"Laura","stupid","female","the most intelligent<br>person in the world","unintelligent","the most stupid<br>person in the world","intelligent","person","positive","lexant","intelligent",3,0.83
3,13409,"four_sliders",7,"Stephen","stupid","male","the most intelligent<br>person in the world","unintelligent","the most stupid<br>person in the world","stupid","person","lexant","lexant","intelligent",4,0.14
3,11339,"four_sliders",8,"Emma","fake","female","the most sincere<br>person in the world","insincere","the most fake<br>person in the world","not fake","person","neg_lexant","lexant","sincere",1,0.82
3,11339,"four_sliders",8,"Brooke","fake","female","the most sincere<br>person in the world","insincere","the most fake<br>person in the world","sincere","person","positive","lexant","sincere",2,0.82
3,11339,"four_sliders",8,"Cameron","fake","male","the most sincere<br>person in the world","insincere","the most fake<br>person in the world","not sincere","person","neg_positive","lexant","sincere",3,0.1
3,11339,"four_sliders",8,"William","fake","male","the most sincere<br>person in the world","insincere","the most fake<br>person in the world","fake","person","lexant","lexant","sincere",4,0.12
3,7298,"four_sliders",9,"Jeremy","deceitful","male","the most honest<br>person in the world","dishonest","the most deceitful<br>person in the world","honest","person","positive","lexant","honest",1,0.84
3,7298,"four_sliders",9,"Charles","deceitful","male","the most honest<br>person in the world","dishonest","the most deceitful<br>person in the world","not honest","person","neg_positive","lexant","honest",2,0.11
3,7298,"four_sliders",9,"Jackie","deceitful","female","the most honest<br>person in the world","dishonest","the most deceitful<br>person in the world","deceitful","person","lexant","lexant","honest",3,0.14
3,7298,"four_sliders",9,"Daniel","deceitful","male","the most honest<br>person in the world","dishonest","the most deceitful<br>person in the world","not deceitful","person","neg_lexant","lexant","honest",4,0.85
3,14063,"four_sliders",10,"Claire","stingy","female","the most generous<br>person in the world","ungenerous","the most stingy<br>person in the world","stingy","person","lexant","lexant","generous",1,0.13
3,14063,"four_sliders",10,"Jennifer","stingy","female","the most generous<br>person in the world","ungenerous","the most stingy<br>person in the world","generous","person","positive","lexant","generous",2,0.84
3,14063,"four_sliders",10,"Kathleen","stingy","female","the most generous<br>person in the world","ungenerous","the most stingy<br>person in the world","not stingy","person","neg_lexant","lexant","generous",3,0.84
3,14063,"four_sliders",10,"Eric","stingy","male","the most generous<br>person in the world","ungenerous","the most stingy<br>person in the world","not generous","person","neg_positive","lexant","generous",4,0.16
3,11754,"four_sliders",11,"Diana","traitorous","female","the most patriotic<br>person in the world","unpatriotic","the most traitorous<br>person in the world","traitorous","person","lexant","lexant","patriotic",1,0.13
3,11754,"four_sliders",11,"Monica","traitorous","female","the most patriotic<br>person in the world","unpatriotic","the most traitorous<br>person in the world","patriotic","person","positive","lexant","patriotic",2,0.84
3,11754,"four_sliders",11,"Lucas","traitorous","male","the most patriotic<br>person in the world","unpatriotic","the most traitorous<br>person in the world","not patriotic","person","neg_positive","lexant","patriotic",3,0.14
3,11754,"four_sliders",11,"Jacob","traitorous","male","the most patriotic<br>person in the world","unpatriotic","the most traitorous<br>person in the world","not traitorous","person","neg_lexant","lexant","patriotic",4,0.85
3,8051,"four_sliders",12,"Tom","flaky","male","the most reliable<br>person in the world","unreliable","the most flaky<br>person in the world","not reliable","person","neg_positive","lexant","reliable",1,0.14
3,8051,"four_sliders",12,"Michael","flaky","male","the most reliable<br>person in the world","unreliable","the most flaky<br>person in the world","not flaky","person","neg_lexant","lexant","reliable",2,0.82
3,8051,"four_sliders",12,"Gabriel","flaky","male","the most reliable<br>person in the world","unreliable","the most flaky<br>person in the world","reliable","person","positive","lexant","reliable",3,0.8
3,8051,"four_sliders",12,"Greg","flaky","male","the most reliable<br>person in the world","unreliable","the most flaky<br>person in the world","flaky","person","lexant","lexant","reliable",4,0.14
4,9233,"four_sliders",1,"Nicole","cruel","female","the most kind<br>person in the world","unkind","the most cruel<br>person in the world","cruel","person","lexant","lexant","kind",1,0.06
4,9233,"four_sliders",1,"John","cruel","male","the most kind<br>person in the world","unkind","the most cruel<br>person in the world","kind","person","positive","lexant","kind",2,0.68
4,9233,"four_sliders",1,"Maya","cruel","female","the most kind<br>person in the world","unkind","the most cruel<br>person in the world","not kind","person","neg_positive","lexant","kind",3,0.18
4,9233,"four_sliders",1,"Angela","cruel","female","the most kind<br>person in the world","unkind","the most cruel<br>person in the world","not cruel","person","neg_lexant","lexant","kind",4,0.59
4,6501,"four_sliders",2,"Eric","mean","male","the most friendly<br>person in the world","unfriendly","the most mean<br>person in the world","mean","person","lexant","lexant","friendly",1,0.29
4,6501,"four_sliders",2,"Julia","mean","female","the most friendly<br>person in the world","unfriendly","the most mean<br>person in the world","not friendly","person","neg_positive","lexant","friendly",2,0.39
4,6501,"four_sliders",2,"Anthony","mean","male","the most friendly<br>person in the world","unfriendly","the most mean<br>person in the world","not mean","person","neg_lexant","lexant","friendly",3,0.59
4,6501,"four_sliders",2,"Laura","mean","female","the most friendly<br>person in the world","unfriendly","the most mean<br>person in the world","friendly","person","positive","lexant","friendly",4,0.75
4,5736,"four_sliders",3,"Sophia","rude","female","the most polite<br>person in the world","impolite","the most rude<br>person in the world","rude","person","lexant","lexant","polite",1,0.38
4,5736,"four_sliders",3,"Stephanie","rude","female","the most polite<br>person in the world","impolite","the most rude<br>person in the world","not rude","person","neg_lexant","lexant","polite",2,0.54
4,5736,"four_sliders",3,"Cameron","rude","male","the most polite<br>person in the world","impolite","the most rude<br>person in the world","not polite","person","neg_positive","lexant","polite",3,0.44
4,5736,"four_sliders",3,"Charles","rude","male","the most polite<br>person in the world","impolite","the most rude<br>person in the world","polite","person","positive","lexant","polite",4,0.8
4,7391,"four_sliders",4,"Jackie","fake","female","the most sincere<br>person in the world","insincere","the most fake<br>person in the world","not fake","person","neg_lexant","lexant","sincere",1,0.48
4,7391,"four_sliders",4,"Veronica","fake","female","the most sincere<br>person in the world","insincere","the most fake<br>person in the world","sincere","person","positive","lexant","sincere",2,0.75
4,7391,"four_sliders",4,"Mason","fake","male","the most sincere<br>person in the world","insincere","the most fake<br>person in the world","not sincere","person","neg_positive","lexant","sincere",3,0.25
4,7391,"four_sliders",4,"Greg","fake","male","the most sincere<br>person in the world","insincere","the most fake<br>person in the world","fake","person","lexant","lexant","sincere",4,0.05
4,4871,"four_sliders",5,"Gabriel","sad","male","the most happy<br>person in the world","unhappy","the most sad<br>person in the world","happy","person","positive","lexant","happy",1,0.73
4,4871,"four_sliders",5,"Claire","sad","female","the most happy<br>person in the world","unhappy","the most sad<br>person in the world","not sad","person","neg_lexant","lexant","happy",2,0.59
4,4871,"four_sliders",5,"Lee","sad","male","the most happy<br>person in the world","unhappy","the most sad<br>person in the world","not happy","person","neg_positive","lexant","happy",3,0.37
4,4871,"four_sliders",5,"Liam","sad","male","the most happy<br>person in the world","unhappy","the most sad<br>person in the world","sad","person","lexant","lexant","happy",4,0.11
4,5265,"four_sliders",6,"Alexander","ugly","male","the most attractive<br>person in the world","unattractive","the most ugly<br>person in the world","not ugly","person","neg_lexant","lexant","attractive",1,0.43
4,5265,"four_sliders",6,"Michael","ugly","male","the most attractive<br>person in the world","unattractive","the most ugly<br>person in the world","ugly","person","lexant","lexant","attractive",2,0.22
4,5265,"four_sliders",6,"Jeremy","ugly","male","the most attractive<br>person in the world","unattractive","the most ugly<br>person in the world","attractive","person","positive","lexant","attractive",3,0.8
4,5265,"four_sliders",6,"Brooke","ugly","female","the most attractive<br>person in the world","unattractive","the most ugly<br>person in the world","not attractive","person","neg_positive","lexant","attractive",4,0.11
4,6558,"four_sliders",7,"William","lazy","male","the most ambitious<br>person in the world","unambitious","the most lazy<br>person in the world","lazy","person","lexant","lexant","ambitious",1,0.27
4,6558,"four_sliders",7,"Melinda","lazy","female","the most ambitious<br>person in the world","unambitious","the most lazy<br>person in the world","ambitious","person","positive","lexant","ambitious",2,0.84
4,6558,"four_sliders",7,"Alison","lazy","female","the most ambitious<br>person in the world","unambitious","the most lazy<br>person in the world","not lazy","person","neg_lexant","lexant","ambitious",3,0.64
4,6558,"four_sliders",7,"Jacob","lazy","male","the most ambitious<br>person in the world","unambitious","the most lazy<br>person in the world","not ambitious","person","neg_positive","lexant","ambitious",4,0.39
4,6727,"four_sliders",8,"Jennifer","flaky","female","the most reliable<br>person in the world","unreliable","the most flaky<br>person in the world","not flaky","person","neg_lexant","lexant","reliable",1,0.46
4,6727,"four_sliders",8,"Samuel","flaky","male","the most reliable<br>person in the world","unreliable","the most flaky<br>person in the world","reliable","person","positive","lexant","reliable",2,0.81
4,6727,"four_sliders",8,"Mia","flaky","female","the most reliable<br>person in the world","unreliable","the most flaky<br>person in the world","flaky","person","lexant","lexant","reliable",3,0.08
4,6727,"four_sliders",8,"Kim","flaky","female","the most reliable<br>person in the world","unreliable","the most flaky<br>person in the world","not reliable","person","neg_positive","lexant","reliable",4,0.33
4,5883,"four_sliders",9,"Tom","boring","male","the most interesting<br>person in the world","uninteresting","the most boring<br>person in the world","not boring","person","neg_lexant","lexant","interesting",1,0.49
4,5883,"four_sliders",9,"David","boring","male","the most interesting<br>person in the world","uninteresting","the most boring<br>person in the world","not interesting","person","neg_positive","lexant","interesting",2,0.37
4,5883,"four_sliders",9,"Diana","boring","female","the most interesting<br>person in the world","uninteresting","the most boring<br>person in the world","interesting","person","positive","lexant","interesting",3,0.65
4,5883,"four_sliders",9,"Dylan","boring","male","the most interesting<br>person in the world","uninteresting","the most boring<br>person in the world","boring","person","lexant","lexant","interesting",4,0.06
4,7774,"four_sliders",10,"Lucas","resentful","male","the most forgiving<br>person in the world","unforgiving","the most resentful<br>person in the world","not forgiving","person","neg_positive","lexant","forgiving",1,0.35
4,7774,"four_sliders",10,"Alicia","resentful","female","the most forgiving<br>person in the world","unforgiving","the most resentful<br>person in the world","not resentful","person","neg_lexant","lexant","forgiving",2,0.45
4,7774,"four_sliders",10,"Monica","resentful","female","the most forgiving<br>person in the world","unforgiving","the most resentful<br>person in the world","forgiving","person","positive","lexant","forgiving",3,0.79
4,7774,"four_sliders",10,"Kathleen","resentful","female","the most forgiving<br>person in the world","unforgiving","the most resentful<br>person in the world","resentful","person","lexant","lexant","forgiving",4,0.08
4,7749,"four_sliders",11,"Daniel","traitorous","male","the most patriotic<br>person in the world","unpatriotic","the most traitorous<br>person in the world","not patriotic","person","neg_positive","lexant","patriotic",1,0.49
4,7749,"four_sliders",11,"Michelle","traitorous","female","the most patriotic<br>person in the world","unpatriotic","the most traitorous<br>person in the world","traitorous","person","lexant","lexant","patriotic",2,0.36
4,7749,"four_sliders",11,"Noah","traitorous","male","the most patriotic<br>person in the world","unpatriotic","the most traitorous<br>person in the world","not traitorous","person","neg_lexant","lexant","patriotic",3,0.55
4,7749,"four_sliders",11,"Andrew","traitorous","male","the most patriotic<br>person in the world","unpatriotic","the most traitorous<br>person in the world","patriotic","person","positive","lexant","patriotic",4,0.69
4,5489,"four_sliders",12,"Stephen","crazy","male","the most rational<br>person in the world","irrational","the most crazy<br>person in the world","rational","person","positive","lexant","rational",1,0.77
4,5489,"four_sliders",12,"Sasha","crazy","female","the most rational<br>person in the world","irrational","the most crazy<br>person in the world","not rational","person","neg_positive","lexant","rational",2,0.47
4,5489,"four_sliders",12,"Amber","crazy","female","the most rational<br>person in the world","irrational","the most crazy<br>person in the world","crazy","person","lexant","lexant","rational",3,0.1
4,5489,"four_sliders",12,"Emma","crazy","female","the most rational<br>person in the world","irrational","the most crazy<br>person in the world","not crazy","person","neg_lexant","lexant","rational",4,0.61
5,25908,"four_sliders",1,"Alison","mean","female","the most friendly<br>person in the world","unfriendly","the most mean<br>person in the world","friendly","person","positive","lexant","friendly",1,0.87
5,25908,"four_sliders",1,"Charles","mean","male","the most friendly<br>person in the world","unfriendly","the most mean<br>person in the world","mean","person","lexant","lexant","friendly",2,0.19
5,25908,"four_sliders",1,"Mia","mean","female","the most friendly<br>person in the world","unfriendly","the most mean<br>person in the world","not mean","person","neg_lexant","lexant","friendly",3,0.92
5,25908,"four_sliders",1,"Alicia","mean","female","the most friendly<br>person in the world","unfriendly","the most mean<br>person in the world","not friendly","person","neg_positive","lexant","friendly",4,0.08
5,16827,"four_sliders",2,"Tom","boring","male","the most interesting<br>person in the world","uninteresting","the most boring<br>person in the world","not boring","person","neg_lexant","lexant","interesting",1,0.88
5,16827,"four_sliders",2,"Lee","boring","male","the most interesting<br>person in the world","uninteresting","the most boring<br>person in the world","boring","person","lexant","lexant","interesting",2,0.1
5,16827,"four_sliders",2,"Samuel","boring","male","the most interesting<br>person in the world","uninteresting","the most boring<br>person in the world","not interesting","person","neg_positive","lexant","interesting",3,0.21
5,16827,"four_sliders",2,"Jacob","boring","male","the most interesting<br>person in the world","uninteresting","the most boring<br>person in the world","interesting","person","positive","lexant","interesting",4,0.98
5,15277,"four_sliders",3,"Nicole","flaky","female","the most reliable<br>person in the world","unreliable","the most flaky<br>person in the world","not reliable","person","neg_positive","lexant","reliable",1,0.08
5,15277,"four_sliders",3,"Veronica","flaky","female","the most reliable<br>person in the world","unreliable","the most flaky<br>person in the world","flaky","person","lexant","lexant","reliable",2,0.21
5,15277,"four_sliders",3,"Maya","flaky","female","the most reliable<br>person in the world","unreliable","the most flaky<br>person in the world","not flaky","person","neg_lexant","lexant","reliable",3,0.69
5,15277,"four_sliders",3,"William","flaky","male","the most reliable<br>person in the world","unreliable","the most flaky<br>person in the world","reliable","person","positive","lexant","reliable",4,0.98
5,17440,"four_sliders",4,"John","stupid","male","the most intelligent<br>person in the world","unintelligent","the most stupid<br>person in the world","not stupid","person","neg_lexant","lexant","intelligent",1,0.77
5,17440,"four_sliders",4,"Jackie","stupid","female","the most intelligent<br>person in the world","unintelligent","the most stupid<br>person in the world","intelligent","person","positive","lexant","intelligent",2,0.93
5,17440,"four_sliders",4,"Michelle","stupid","female","the most intelligent<br>person in the world","unintelligent","the most stupid<br>person in the world","stupid","person","lexant","lexant","intelligent",3,0.13
5,17440,"four_sliders",4,"Emma","stupid","female","the most intelligent<br>person in the world","unintelligent","the most stupid<br>person in the world","not intelligent","person","neg_positive","lexant","intelligent",4,0.23
5,10709,"four_sliders",5,"Stephanie","childish","female","the most mature<br>person in the world","immature","the most childish<br>person in the world","childish","person","lexant","lexant","mature",1,0.15
5,10709,"four_sliders",5,"Alexander","childish","male","the most mature<br>person in the world","immature","the most childish<br>person in the world","not childish","person","neg_lexant","lexant","mature",2,0.88
5,10709,"four_sliders",5,"Julia","childish","female","the most mature<br>person in the world","immature","the most childish<br>person in the world","not mature","person","neg_positive","lexant","mature",3,0.08
5,10709,"four_sliders",5,"Anthony","childish","male","the most mature<br>person in the world","immature","the most childish<br>person in the world","mature","person","positive","lexant","mature",4,0.99
5,10013,"four_sliders",6,"Greg","resentful","male","the most forgiving<br>person in the world","unforgiving","the most resentful<br>person in the world","forgiving","person","positive","lexant","forgiving",1,0.91
5,10013,"four_sliders",6,"Cameron","resentful","male","the most forgiving<br>person in the world","unforgiving","the most resentful<br>person in the world","not resentful","person","neg_lexant","lexant","forgiving",2,0.87
5,10013,"four_sliders",6,"Sasha","resentful","female","the most forgiving<br>person in the world","unforgiving","the most resentful<br>person in the world","resentful","person","lexant","lexant","forgiving",3,0.03
5,10013,"four_sliders",6,"Stephen","resentful","male","the most forgiving<br>person in the world","unforgiving","the most resentful<br>person in the world","not forgiving","person","neg_positive","lexant","forgiving",4,0.02
5,9793,"four_sliders",7,"David","sad","male","the most happy<br>person in the world","unhappy","the most sad<br>person in the world","sad","person","lexant","lexant","happy",1,0.11
5,9793,"four_sliders",7,"Diana","sad","female","the most happy<br>person in the world","unhappy","the most sad<br>person in the world","not sad","person","neg_lexant","lexant","happy",2,0.9
5,9793,"four_sliders",7,"Eric","sad","male","the most happy<br>person in the world","unhappy","the most sad<br>person in the world","not happy","person","neg_positive","lexant","happy",3,0.01
5,9793,"four_sliders",7,"Amber","sad","female","the most happy<br>person in the world","unhappy","the most sad<br>person in the world","happy","person","positive","lexant","happy",4,0.99
5,15038,"four_sliders",8,"Laura","fake","female","the most sincere<br>person in the world","insincere","the most fake<br>person in the world","not sincere","person","neg_positive","lexant","sincere",1,0.09
5,15038,"four_sliders",8,"Gabriel","fake","male","the most sincere<br>person in the world","insincere","the most fake<br>person in the world","not fake","person","neg_lexant","lexant","sincere",2,0.85
5,15038,"four_sliders",8,"Kathleen","fake","female","the most sincere<br>person in the world","insincere","the most fake<br>person in the world","fake","person","lexant","lexant","sincere",3,0.1
5,15038,"four_sliders",8,"Kim","fake","female","the most sincere<br>person in the world","insincere","the most fake<br>person in the world","sincere","person","positive","lexant","sincere",4,0.98
5,15126,"four_sliders",9,"Claire","deceitful","female","the most honest<br>person in the world","dishonest","the most deceitful<br>person in the world","deceitful","person","lexant","lexant","honest",1,0.13
5,15126,"four_sliders",9,"Jennifer","deceitful","female","the most honest<br>person in the world","dishonest","the most deceitful<br>person in the world","honest","person","positive","lexant","honest",2,1
5,15126,"four_sliders",9,"Michael","deceitful","male","the most honest<br>person in the world","dishonest","the most deceitful<br>person in the world","not deceitful","person","neg_lexant","lexant","honest",3,0.97
5,15126,"four_sliders",9,"Jeremy","deceitful","male","the most honest<br>person in the world","dishonest","the most deceitful<br>person in the world","not honest","person","neg_positive","lexant","honest",4,0.19
5,15010,"four_sliders",10,"Angela","wasteful","female","the most resourceful<br>person in the world","unresourceful","the most wasteful<br>person in the world","resourceful","person","positive","lexant","resourceful",1,0.99
5,15010,"four_sliders",10,"Dylan","wasteful","male","the most resourceful<br>person in the world","unresourceful","the most wasteful<br>person in the world","wasteful","person","lexant","lexant","resourceful",2,0
5,15010,"four_sliders",10,"Noah","wasteful","male","the most resourceful<br>person in the world","unresourceful","the most wasteful<br>person in the world","not wasteful","person","neg_lexant","lexant","resourceful",3,1
5,15010,"four_sliders",10,"Sophia","wasteful","female","the most resourceful<br>person in the world","unresourceful","the most wasteful<br>person in the world","not resourceful","person","neg_positive","lexant","resourceful",4,0
5,10751,"four_sliders",11,"Brooke","lazy","female","the most ambitious<br>person in the world","unambitious","the most lazy<br>person in the world","not ambitious","person","neg_positive","lexant","ambitious",1,0.21
5,10751,"four_sliders",11,"Melinda","lazy","female","the most ambitious<br>person in the world","unambitious","the most lazy<br>person in the world","lazy","person","lexant","lexant","ambitious",2,0.05
5,10751,"four_sliders",11,"Mason","lazy","male","the most ambitious<br>person in the world","unambitious","the most lazy<br>person in the world","not lazy","person","neg_lexant","lexant","ambitious",3,0.99
5,10751,"four_sliders",11,"Andrew","lazy","male","the most ambitious<br>person in the world","unambitious","the most lazy<br>person in the world","ambitious","person","positive","lexant","ambitious",4,0.95
5,11808,"four_sliders",12,"Monica","ignorant","female","the most educated<br>person in the world","uneducated","the most ignorant<br>person in the world","not educated","person","neg_positive","lexant","educated",1,0.1
5,11808,"four_sliders",12,"Liam","ignorant","male","the most educated<br>person in the world","uneducated","the most ignorant<br>person in the world","ignorant","person","lexant","lexant","educated",2,0.04
5,11808,"four_sliders",12,"Lucas","ignorant","male","the most educated<br>person in the world","uneducated","the most ignorant<br>person in the world","educated","person","positive","lexant","educated",3,0.98
5,11808,"four_sliders",12,"Daniel","ignorant","male","the most educated<br>person in the world","uneducated","the most ignorant<br>person in the world","not ignorant","person","neg_lexant","lexant","educated",4,0.84
6,18976,"four_sliders",1,"Kathleen","deceitful","female","the most honest<br>person in the world","dishonest","the most deceitful<br>person in the world","not deceitful","person","neg_lexant","lexant","honest",1,0.95
6,18976,"four_sliders",1,"Emma","deceitful","female","the most honest<br>person in the world","dishonest","the most deceitful<br>person in the world","honest","person","positive","lexant","honest",2,0.99
6,18976,"four_sliders",1,"Lucas","deceitful","male","the most honest<br>person in the world","dishonest","the most deceitful<br>person in the world","deceitful","person","lexant","lexant","honest",3,0.01
6,18976,"four_sliders",1,"Michael","deceitful","male","the most honest<br>person in the world","dishonest","the most deceitful<br>person in the world","not honest","person","neg_positive","lexant","honest",4,0
6,12507,"four_sliders",2,"Sophia","boring","female","the most interesting<br>person in the world","uninteresting","the most boring<br>person in the world","boring","person","lexant","lexant","interesting",1,0.37
6,12507,"four_sliders",2,"Alexander","boring","male","the most interesting<br>person in the world","uninteresting","the most boring<br>person in the world","not boring","person","neg_lexant","lexant","interesting",2,0.72
6,12507,"four_sliders",2,"Angela","boring","female","the most interesting<br>person in the world","uninteresting","the most boring<br>person in the world","not interesting","person","neg_positive","lexant","interesting",3,0.2
6,12507,"four_sliders",2,"Liam","boring","male","the most interesting<br>person in the world","uninteresting","the most boring<br>person in the world","interesting","person","positive","lexant","interesting",4,0.95
6,10343,"four_sliders",3,"Samuel","ugly","male","the most attractive<br>person in the world","unattractive","the most ugly<br>person in the world","attractive","person","positive","lexant","attractive",1,0.66
6,10343,"four_sliders",3,"Daniel","ugly","male","the most attractive<br>person in the world","unattractive","the most ugly<br>person in the world","ugly","person","lexant","lexant","attractive",2,0.11
6,10343,"four_sliders",3,"Anthony","ugly","male","the most attractive<br>person in the world","unattractive","the most ugly<br>person in the world","not attractive","person","neg_positive","lexant","attractive",3,0.15
6,10343,"four_sliders",3,"Amber","ugly","female","the most attractive<br>person in the world","unattractive","the most ugly<br>person in the world","not ugly","person","neg_lexant","lexant","attractive",4,0.76
6,10771,"four_sliders",4,"Nicole","cruel","female","the most kind<br>person in the world","unkind","the most cruel<br>person in the world","cruel","person","lexant","lexant","kind",1,0.31
6,10771,"four_sliders",4,"William","cruel","male","the most kind<br>person in the world","unkind","the most cruel<br>person in the world","kind","person","positive","lexant","kind",2,0.76
6,10771,"four_sliders",4,"Cameron","cruel","male","the most kind<br>person in the world","unkind","the most cruel<br>person in the world","not kind","person","neg_positive","lexant","kind",3,0.24
6,10771,"four_sliders",4,"Sasha","cruel","female","the most kind<br>person in the world","unkind","the most cruel<br>person in the world","not cruel","person","neg_lexant","lexant","kind",4,0.83
6,13739,"four_sliders",5,"Veronica","ignorant","female","the most educated<br>person in the world","uneducated","the most ignorant<br>person in the world","ignorant","person","lexant","lexant","educated",1,0.24
6,13739,"four_sliders",5,"Dylan","ignorant","male","the most educated<br>person in the world","uneducated","the most ignorant<br>person in the world","educated","person","positive","lexant","educated",2,0.77
6,13739,"four_sliders",5,"David","ignorant","male","the most educated<br>person in the world","uneducated","the most ignorant<br>person in the world","not ignorant","person","neg_lexant","lexant","educated",3,0.76
6,13739,"four_sliders",5,"Mia","ignorant","female","the most educated<br>person in the world","uneducated","the most ignorant<br>person in the world","not educated","person","neg_positive","lexant","educated",4,0.19
6,19610,"four_sliders",6,"Gabriel","resentful","male","the most forgiving<br>person in the world","unforgiving","the most resentful<br>person in the world","resentful","person","lexant","lexant","forgiving",1,0.22
6,19610,"four_sliders",6,"Melinda","resentful","female","the most forgiving<br>person in the world","unforgiving","the most resentful<br>person in the world","forgiving","person","positive","lexant","forgiving",2,0.8
6,19610,"four_sliders",6,"Monica","resentful","female","the most forgiving<br>person in the world","unforgiving","the most resentful<br>person in the world","not resentful","person","neg_lexant","lexant","forgiving",3,0.81
6,19610,"four_sliders",6,"Jacob","resentful","male","the most forgiving<br>person in the world","unforgiving","the most resentful<br>person in the world","not forgiving","person","neg_positive","lexant","forgiving",4,0.17
6,9484,"four_sliders",7,"Jennifer","rude","female","the most polite<br>person in the world","impolite","the most rude<br>person in the world","rude","person","lexant","lexant","polite",1,0.2
6,9484,"four_sliders",7,"Lee","rude","male","the most polite<br>person in the world","impolite","the most rude<br>person in the world","polite","person","positive","lexant","polite",2,0.78
6,9484,"four_sliders",7,"Kim","rude","female","the most polite<br>person in the world","impolite","the most rude<br>person in the world","not rude","person","neg_lexant","lexant","polite",3,0.82
6,9484,"four_sliders",7,"John","rude","male","the most polite<br>person in the world","impolite","the most rude<br>person in the world","not polite","person","neg_positive","lexant","polite",4,0.26
6,10416,"four_sliders",8,"Alicia","stupid","female","the most intelligent<br>person in the world","unintelligent","the most stupid<br>person in the world","not stupid","person","neg_lexant","lexant","intelligent",1,0.72
6,10416,"four_sliders",8,"Maya","stupid","female","the most intelligent<br>person in the world","unintelligent","the most stupid<br>person in the world","intelligent","person","positive","lexant","intelligent",2,0.83
6,10416,"four_sliders",8,"Jackie","stupid","female","the most intelligent<br>person in the world","unintelligent","the most stupid<br>person in the world","not intelligent","person","neg_positive","lexant","intelligent",3,0.16
6,10416,"four_sliders",8,"Jeremy","stupid","male","the most intelligent<br>person in the world","unintelligent","the most stupid<br>person in the world","stupid","person","lexant","lexant","intelligent",4,0.02
6,10234,"four_sliders",9,"Michelle","mean","female","the most friendly<br>person in the world","unfriendly","the most mean<br>person in the world","friendly","person","positive","lexant","friendly",1,0.77
6,10234,"four_sliders",9,"Eric","mean","male","the most friendly<br>person in the world","unfriendly","the most mean<br>person in the world","mean","person","lexant","lexant","friendly",2,0.18
6,10234,"four_sliders",9,"Mason","mean","male","the most friendly<br>person in the world","unfriendly","the most mean<br>person in the world","not friendly","person","neg_positive","lexant","friendly",3,0.25
6,10234,"four_sliders",9,"Laura","mean","female","the most friendly<br>person in the world","unfriendly","the most mean<br>person in the world","not mean","person","neg_lexant","lexant","friendly",4,0.71
6,10588,"four_sliders",10,"Brooke","fake","female","the most sincere<br>person in the world","insincere","the most fake<br>person in the world","not fake","person","neg_lexant","lexant","sincere",1,0.68
6,10588,"four_sliders",10,"Stephen","fake","male","the most sincere<br>person in the world","insincere","the most fake<br>person in the world","sincere","person","positive","lexant","sincere",2,0.78
6,10588,"four_sliders",10,"Andrew","fake","male","the most sincere<br>person in the world","insincere","the most fake<br>person in the world","fake","person","lexant","lexant","sincere",3,0.08
6,10588,"four_sliders",10,"Julia","fake","female","the most sincere<br>person in the world","insincere","the most fake<br>person in the world","not sincere","person","neg_positive","lexant","sincere",4,0.16
6,13362,"four_sliders",11,"Diana","wasteful","female","the most resourceful<br>person in the world","unresourceful","the most wasteful<br>person in the world","resourceful","person","positive","lexant","resourceful",1,0.81
6,13362,"four_sliders",11,"Alison","wasteful","female","the most resourceful<br>person in the world","unresourceful","the most wasteful<br>person in the world","not resourceful","person","neg_positive","lexant","resourceful",2,0.23
6,13362,"four_sliders",11,"Noah","wasteful","male","the most resourceful<br>person in the world","unresourceful","the most wasteful<br>person in the world","not wasteful","person","neg_lexant","lexant","resourceful",3,0.68
6,13362,"four_sliders",11,"Claire","wasteful","female","the most resourceful<br>person in the world","unresourceful","the most wasteful<br>person in the world","wasteful","person","lexant","lexant","resourceful",4,0.11
6,22889,"four_sliders",12,"Stephanie","traitorous","female","the most patriotic<br>person in the world","unpatriotic","the most traitorous<br>person in the world","not traitorous","person","neg_lexant","lexant","patriotic",1,0.72
6,22889,"four_sliders",12,"Greg","traitorous","male","the most patriotic<br>person in the world","unpatriotic","the most traitorous<br>person in the world","not patriotic","person","neg_positive","lexant","patriotic",2,0.22
6,22889,"four_sliders",12,"Tom","traitorous","male","the most patriotic<br>person in the world","unpatriotic","the most traitorous<br>person in the world","patriotic","person","positive","lexant","patriotic",3,0.73
6,22889,"four_sliders",12,"Charles","traitorous","male","the most patriotic<br>person in the world","unpatriotic","the most traitorous<br>person in the world","traitorous","person","lexant","lexant","patriotic",4,0.09
7,25238,"four_sliders",1,"Eric","wasteful","male","the most resourceful<br>person in the world","unresourceful","the most wasteful<br>person in the world","resourceful","person","positive","lexant","resourceful",1,0.63
7,25238,"four_sliders",1,"Mason","wasteful","male","the most resourceful<br>person in the world","unresourceful","the most wasteful<br>person in the world","not wasteful","person","neg_lexant","lexant","resourceful",2,0.4
7,25238,"four_sliders",1,"Greg","wasteful","male","the most resourceful<br>person in the world","unresourceful","the most wasteful<br>person in the world","wasteful","person","lexant","lexant","resourceful",3,0.22
7,25238,"four_sliders",1,"Laura","wasteful","female","the most resourceful<br>person in the world","unresourceful","the most wasteful<br>person in the world","not resourceful","person","neg_positive","lexant","resourceful",4,0.26
7,14175,"four_sliders",2,"Amber","stingy","female","the most generous<br>person in the world","ungenerous","the most stingy<br>person in the world","stingy","person","lexant","lexant","generous",1,0.27
7,14175,"four_sliders",2,"Maya","stingy","female","the most generous<br>person in the world","ungenerous","the most stingy<br>person in the world","not generous","person","neg_positive","lexant","generous",2,0.21
7,14175,"four_sliders",2,"William","stingy","male","the most generous<br>person in the world","ungenerous","the most stingy<br>person in the world","generous","person","positive","lexant","generous",3,0.75
7,14175,"four_sliders",2,"David","stingy","male","the most generous<br>person in the world","ungenerous","the most stingy<br>person in the world","not stingy","person","neg_lexant","lexant","generous",4,0.81
7,11959,"four_sliders",3,"Jennifer","cold","female","the most affectionate<br>person in the world","unaffectionate","the most cold<br>person in the world","not cold","person","neg_lexant","lexant","affectionate",1,0.3
7,11959,"four_sliders",3,"Kathleen","cold","female","the most affectionate<br>person in the world","unaffectionate","the most cold<br>person in the world","affectionate","person","positive","lexant","affectionate",2,0.73
7,11959,"four_sliders",3,"Alicia","cold","female","the most affectionate<br>person in the world","unaffectionate","the most cold<br>person in the world","not affectionate","person","neg_positive","lexant","affectionate",3,0.22
7,11959,"four_sliders",3,"Alexander","cold","male","the most affectionate<br>person in the world","unaffectionate","the most cold<br>person in the world","cold","person","lexant","lexant","affectionate",4,0.25
7,11159,"four_sliders",4,"Melinda","cruel","female","the most kind<br>person in the world","unkind","the most cruel<br>person in the world","not kind","person","neg_positive","lexant","kind",1,0.17
7,11159,"four_sliders",4,"John","cruel","male","the most kind<br>person in the world","unkind","the most cruel<br>person in the world","cruel","person","lexant","lexant","kind",2,0.2
7,11159,"four_sliders",4,"Cameron","cruel","male","the most kind<br>person in the world","unkind","the most cruel<br>person in the world","not cruel","person","neg_lexant","lexant","kind",3,0.85
7,11159,"four_sliders",4,"Charles","cruel","male","the most kind<br>person in the world","unkind","the most cruel<br>person in the world","kind","person","positive","lexant","kind",4,0.79
7,14988,"four_sliders",5,"Lee","traitorous","male","the most patriotic<br>person in the world","unpatriotic","the most traitorous<br>person in the world","not patriotic","person","neg_positive","lexant","patriotic",1,0.21
7,14988,"four_sliders",5,"Claire","traitorous","female","the most patriotic<br>person in the world","unpatriotic","the most traitorous<br>person in the world","not traitorous","person","neg_lexant","lexant","patriotic",2,0.73
7,14988,"four_sliders",5,"Michael","traitorous","male","the most patriotic<br>person in the world","unpatriotic","the most traitorous<br>person in the world","patriotic","person","positive","lexant","patriotic",3,0.79
7,14988,"four_sliders",5,"Jeremy","traitorous","male","the most patriotic<br>person in the world","unpatriotic","the most traitorous<br>person in the world","traitorous","person","lexant","lexant","patriotic",4,0.26
7,13617,"four_sliders",6,"Stephen","ignorant","male","the most educated<br>person in the world","uneducated","the most ignorant<br>person in the world","not ignorant","person","neg_lexant","lexant","educated",1,0.77
7,13617,"four_sliders",6,"Dylan","ignorant","male","the most educated<br>person in the world","uneducated","the most ignorant<br>person in the world","not educated","person","neg_positive","lexant","educated",2,0.19
7,13617,"four_sliders",6,"Mia","ignorant","female","the most educated<br>person in the world","uneducated","the most ignorant<br>person in the world","ignorant","person","lexant","lexant","educated",3,0.18
7,13617,"four_sliders",6,"Kim","ignorant","female","the most educated<br>person in the world","uneducated","the most ignorant<br>person in the world","educated","person","positive","lexant","educated",4,0.81
7,12200,"four_sliders",7,"Lucas","fake","male","the most sincere<br>person in the world","insincere","the most fake<br>person in the world","fake","person","lexant","lexant","sincere",1,0.21
7,12200,"four_sliders",7,"Jacob","fake","male","the most sincere<br>person in the world","insincere","the most fake<br>person in the world","not sincere","person","neg_positive","lexant","sincere",2,0.21
7,12200,"four_sliders",7,"Tom","fake","male","the most sincere<br>person in the world","insincere","the most fake<br>person in the world","not fake","person","neg_lexant","lexant","sincere",3,0.84
7,12200,"four_sliders",7,"Sasha","fake","female","the most sincere<br>person in the world","insincere","the most fake<br>person in the world","sincere","person","positive","lexant","sincere",4,0.84
7,17471,"four_sliders",8,"Nicole","bigoted","female","the most tolerant<br>person in the world","intolerant","the most bigoted<br>person in the world","tolerant","person","positive","lexant","tolerant",1,0.81
7,17471,"four_sliders",8,"Monica","bigoted","female","the most tolerant<br>person in the world","intolerant","the most bigoted<br>person in the world","bigoted","person","lexant","lexant","tolerant",2,0.2
7,17471,"four_sliders",8,"Alison","bigoted","female","the most tolerant<br>person in the world","intolerant","the most bigoted<br>person in the world","not bigoted","person","neg_lexant","lexant","tolerant",3,0.76
7,17471,"four_sliders",8,"Stephanie","bigoted","female","the most tolerant<br>person in the world","intolerant","the most bigoted<br>person in the world","not tolerant","person","neg_positive","lexant","tolerant",4,0.26
7,12616,"four_sliders",9,"Liam","boring","male","the most interesting<br>person in the world","uninteresting","the most boring<br>person in the world","not boring","person","neg_lexant","lexant","interesting",1,0.82
7,12616,"four_sliders",9,"Anthony","boring","male","the most interesting<br>person in the world","uninteresting","the most boring<br>person in the world","not interesting","person","neg_positive","lexant","interesting",2,0.17
7,12616,"four_sliders",9,"Diana","boring","female","the most interesting<br>person in the world","uninteresting","the most boring<br>person in the world","boring","person","lexant","lexant","interesting",3,0.79
7,12616,"four_sliders",9,"Daniel","boring","male","the most interesting<br>person in the world","uninteresting","the most boring<br>person in the world","interesting","person","positive","lexant","interesting",4,0.24
7,15097,"four_sliders",10,"Veronica","deceitful","female","the most honest<br>person in the world","dishonest","the most deceitful<br>person in the world","not honest","person","neg_positive","lexant","honest",1,0.18
7,15097,"four_sliders",10,"Samuel","deceitful","male","the most honest<br>person in the world","dishonest","the most deceitful<br>person in the world","honest","person","positive","lexant","honest",2,0.88
7,15097,"four_sliders",10,"Noah","deceitful","male","the most honest<br>person in the world","dishonest","the most deceitful<br>person in the world","not deceitful","person","neg_lexant","lexant","honest",3,0.84
7,15097,"four_sliders",10,"Jackie","deceitful","female","the most honest<br>person in the world","dishonest","the most deceitful<br>person in the world","deceitful","person","lexant","lexant","honest",4,0.19
7,13056,"four_sliders",11,"Andrew","lazy","male","the most ambitious<br>person in the world","unambitious","the most lazy<br>person in the world","lazy","person","lexant","lexant","ambitious",1,0.19
7,13056,"four_sliders",11,"Emma","lazy","female","the most ambitious<br>person in the world","unambitious","the most lazy<br>person in the world","ambitious","person","positive","lexant","ambitious",2,0.82
7,13056,"four_sliders",11,"Angela","lazy","female","the most ambitious<br>person in the world","unambitious","the most lazy<br>person in the world","not lazy","person","neg_lexant","lexant","ambitious",3,0.83
7,13056,"four_sliders",11,"Julia","lazy","female","the most ambitious<br>person in the world","unambitious","the most lazy<br>person in the world","not ambitious","person","neg_positive","lexant","ambitious",4,0.23
7,14016,"four_sliders",12,"Brooke","flaky","female","the most reliable<br>person in the world","unreliable","the most flaky<br>person in the world","reliable","person","positive","lexant","reliable",1,0.84
7,14016,"four_sliders",12,"Michelle","flaky","female","the most reliable<br>person in the world","unreliable","the most flaky<br>person in the world","not flaky","person","neg_lexant","lexant","reliable",2,0.79
7,14016,"four_sliders",12,"Gabriel","flaky","male","the most reliable<br>person in the world","unreliable","the most flaky<br>person in the world","flaky","person","lexant","lexant","reliable",3,0.15
7,14016,"four_sliders",12,"Sophia","flaky","female","the most reliable<br>person in the world","unreliable","the most flaky<br>person in the world","not reliable","person","neg_positive","lexant","reliable",4,0.23
8,30813,"four_sliders",1,"Claire","crazy","female","the most rational<br>person in the world","irrational","the most crazy<br>person in the world","not crazy","person","neg_lexant","lexant","rational",1,0.71
8,30813,"four_sliders",1,"Tom","crazy","male","the most rational<br>person in the world","irrational","the most crazy<br>person in the world","rational","person","positive","lexant","rational",2,0.82
8,30813,"four_sliders",1,"Sasha","crazy","female","the most rational<br>person in the world","irrational","the most crazy<br>person in the world","not rational","person","neg_positive","lexant","rational",3,0.27
8,30813,"four_sliders",1,"Andrew","crazy","male","the most rational<br>person in the world","irrational","the most crazy<br>person in the world","crazy","person","lexant","lexant","rational",4,0.27
8,11363,"four_sliders",2,"Kim","boring","female","the most interesting<br>person in the world","uninteresting","the most boring<br>person in the world","interesting","person","positive","lexant","interesting",1,0.63
8,11363,"four_sliders",2,"Alicia","boring","female","the most interesting<br>person in the world","uninteresting","the most boring<br>person in the world","boring","person","lexant","lexant","interesting",2,0.35
8,11363,"four_sliders",2,"Lucas","boring","male","the most interesting<br>person in the world","uninteresting","the most boring<br>person in the world","not boring","person","neg_lexant","lexant","interesting",3,0.59
8,11363,"four_sliders",2,"Monica","boring","female","the most interesting<br>person in the world","uninteresting","the most boring<br>person in the world","not interesting","person","neg_positive","lexant","interesting",4,0.35
8,11381,"four_sliders",3,"Liam","wasteful","male","the most resourceful<br>person in the world","unresourceful","the most wasteful<br>person in the world","wasteful","person","lexant","lexant","resourceful",1,0.35
8,11381,"four_sliders",3,"Jeremy","wasteful","male","the most resourceful<br>person in the world","unresourceful","the most wasteful<br>person in the world","resourceful","person","positive","lexant","resourceful",2,0.78
8,11381,"four_sliders",3,"Sophia","wasteful","female","the most resourceful<br>person in the world","unresourceful","the most wasteful<br>person in the world","not wasteful","person","neg_lexant","lexant","resourceful",3,0.57
8,11381,"four_sliders",3,"Michael","wasteful","male","the most resourceful<br>person in the world","unresourceful","the most wasteful<br>person in the world","not resourceful","person","neg_positive","lexant","resourceful",4,0.36
8,18661,"four_sliders",4,"Mia","childish","female","the most mature<br>person in the world","immature","the most childish<br>person in the world","mature","person","positive","lexant","mature",1,0.75
8,18661,"four_sliders",4,"Noah","childish","male","the most mature<br>person in the world","immature","the most childish<br>person in the world","not mature","person","neg_positive","lexant","mature",2,0.43
8,18661,"four_sliders",4,"Melinda","childish","female","the most mature<br>person in the world","immature","the most childish<br>person in the world","not childish","person","neg_lexant","lexant","mature",3,0.67
8,18661,"four_sliders",4,"Stephen","childish","male","the most mature<br>person in the world","immature","the most childish<br>person in the world","childish","person","lexant","lexant","mature",4,0.28
8,15173,"four_sliders",5,"John","cruel","male","the most kind<br>person in the world","unkind","the most cruel<br>person in the world","not kind","person","neg_positive","lexant","kind",1,0.42
8,15173,"four_sliders",5,"Charles","cruel","male","the most kind<br>person in the world","unkind","the most cruel<br>person in the world","not cruel","person","neg_lexant","lexant","kind",2,0.56
8,15173,"four_sliders",5,"Kathleen","cruel","female","the most kind<br>person in the world","unkind","the most cruel<br>person in the world","kind","person","positive","lexant","kind",3,0.75
8,15173,"four_sliders",5,"Greg","cruel","male","the most kind<br>person in the world","unkind","the most cruel<br>person in the world","cruel","person","lexant","lexant","kind",4,0.3
8,18724,"four_sliders",6,"Angela","rude","female","the most polite<br>person in the world","impolite","the most rude<br>person in the world","rude","person","lexant","lexant","polite",1,0.2
8,18724,"four_sliders",6,"Nicole","rude","female","the most polite<br>person in the world","impolite","the most rude<br>person in the world","not polite","person","neg_positive","lexant","polite",2,0.33
8,18724,"four_sliders",6,"Alexander","rude","male","the most polite<br>person in the world","impolite","the most rude<br>person in the world","polite","person","positive","lexant","polite",3,0.89
8,18724,"four_sliders",6,"William","rude","male","the most polite<br>person in the world","impolite","the most rude<br>person in the world","not rude","person","neg_lexant","lexant","polite",4,0.59
8,14302,"four_sliders",7,"Anthony","resentful","male","the most forgiving<br>person in the world","unforgiving","the most resentful<br>person in the world","forgiving","person","positive","lexant","forgiving",1,0.82
8,14302,"four_sliders",7,"Emma","resentful","female","the most forgiving<br>person in the world","unforgiving","the most resentful<br>person in the world","not forgiving","person","neg_positive","lexant","forgiving",2,0.26
8,14302,"four_sliders",7,"Mason","resentful","male","the most forgiving<br>person in the world","unforgiving","the most resentful<br>person in the world","resentful","person","lexant","lexant","forgiving",3,0.25
8,14302,"four_sliders",7,"Brooke","resentful","female","the most forgiving<br>person in the world","unforgiving","the most resentful<br>person in the world","not resentful","person","neg_lexant","lexant","forgiving",4,0.55
8,12934,"four_sliders",8,"Cameron","fake","male","the most sincere<br>person in the world","insincere","the most fake<br>person in the world","not fake","person","neg_lexant","lexant","sincere",1,0.61
8,12934,"four_sliders",8,"Samuel","fake","male","the most sincere<br>person in the world","insincere","the most fake<br>person in the world","fake","person","lexant","lexant","sincere",2,0.34
8,12934,"four_sliders",8,"Daniel","fake","male","the most sincere<br>person in the world","insincere","the most fake<br>person in the world","not sincere","person","neg_positive","lexant","sincere",3,0.34
8,12934,"four_sliders",8,"Jennifer","fake","female","the most sincere<br>person in the world","insincere","the most fake<br>person in the world","sincere","person","positive","lexant","sincere",4,0.79
8,14378,"four_sliders",9,"Eric","sad","male","the most happy<br>person in the world","unhappy","the most sad<br>person in the world","not happy","person","neg_positive","lexant","happy",1,0.51
8,14378,"four_sliders",9,"Dylan","sad","male","the most happy<br>person in the world","unhappy","the most sad<br>person in the world","not sad","person","neg_lexant","lexant","happy",2,0.51
8,14378,"four_sliders",9,"Maya","sad","female","the most happy<br>person in the world","unhappy","the most sad<br>person in the world","sad","person","lexant","lexant","happy",3,0.33
8,14378,"four_sliders",9,"Jacob","sad","male","the most happy<br>person in the world","unhappy","the most sad<br>person in the world","happy","person","positive","lexant","happy",4,0.71
8,11639,"four_sliders",10,"Michelle","deceitful","female","the most honest<br>person in the world","dishonest","the most deceitful<br>person in the world","honest","person","positive","lexant","honest",1,0.7
8,11639,"four_sliders",10,"Diana","deceitful","female","the most honest<br>person in the world","dishonest","the most deceitful<br>person in the world","deceitful","person","lexant","lexant","honest",2,0.28
8,11639,"four_sliders",10,"David","deceitful","male","the most honest<br>person in the world","dishonest","the most deceitful<br>person in the world","not honest","person","neg_positive","lexant","honest",3,0.34
8,11639,"four_sliders",10,"Stephanie","deceitful","female","the most honest<br>person in the world","dishonest","the most deceitful<br>person in the world","not deceitful","person","neg_lexant","lexant","honest",4,0.55
8,12114,"four_sliders",11,"Laura","mean","female","the most friendly<br>person in the world","unfriendly","the most mean<br>person in the world","mean","person","lexant","lexant","friendly",1,0.23
8,12114,"four_sliders",11,"Jackie","mean","female","the most friendly<br>person in the world","unfriendly","the most mean<br>person in the world","not friendly","person","neg_positive","lexant","friendly",2,0.36
8,12114,"four_sliders",11,"Lee","mean","male","the most friendly<br>person in the world","unfriendly","the most mean<br>person in the world","friendly","person","positive","lexant","friendly",3,0.83
8,12114,"four_sliders",11,"Amber","mean","female","the most friendly<br>person in the world","unfriendly","the most mean<br>person in the world","not mean","person","neg_lexant","lexant","friendly",4,0.55
8,10528,"four_sliders",12,"Alison","cold","female","the most affectionate<br>person in the world","unaffectionate","the most cold<br>person in the world","not affectionate","person","neg_positive","lexant","affectionate",1,0.28
8,10528,"four_sliders",12,"Gabriel","cold","male","the most affectionate<br>person in the world","unaffectionate","the most cold<br>person in the world","affectionate","person","positive","lexant","affectionate",2,0.9
8,10528,"four_sliders",12,"Julia","cold","female","the most affectionate<br>person in the world","unaffectionate","the most cold<br>person in the world","cold","person","lexant","lexant","affectionate",3,0.23
8,10528,"four_sliders",12,"Veronica","cold","female","the most affectionate<br>person in the world","unaffectionate","the most cold<br>person in the world","not cold","person","neg_lexant","lexant","affectionate",4,0.53
9,15575,"four_sliders",1,"Jacob","sad","male","the most happy<br>person in the world","unhappy","the most sad<br>person in the world","sad","person","lexant","lexant","happy",1,0.11
9,15575,"four_sliders",1,"Greg","sad","male","the most happy<br>person in the world","unhappy","the most sad<br>person in the world","happy","person","positive","lexant","happy",2,0.88
9,15575,"four_sliders",1,"Monica","sad","female","the most happy<br>person in the world","unhappy","the most sad<br>person in the world","not sad","person","neg_lexant","lexant","happy",3,0.68
9,15575,"four_sliders",1,"Mason","sad","male","the most happy<br>person in the world","unhappy","the most sad<br>person in the world","not happy","person","neg_positive","lexant","happy",4,0.19
9,11404,"four_sliders",2,"Mia","ugly","female","the most attractive<br>person in the world","unattractive","the most ugly<br>person in the world","not attractive","person","neg_positive","lexant","attractive",1,0.19
9,11404,"four_sliders",2,"Kim","ugly","female","the most attractive<br>person in the world","unattractive","the most ugly<br>person in the world","ugly","person","lexant","lexant","attractive",2,0.1
9,11404,"four_sliders",2,"Anthony","ugly","male","the most attractive<br>person in the world","unattractive","the most ugly<br>person in the world","attractive","person","positive","lexant","attractive",3,0.89
9,11404,"four_sliders",2,"Noah","ugly","male","the most attractive<br>person in the world","unattractive","the most ugly<br>person in the world","not ugly","person","neg_lexant","lexant","attractive",4,0.7
9,11987,"four_sliders",3,"Veronica","bigoted","female","the most tolerant<br>person in the world","intolerant","the most bigoted<br>person in the world","bigoted","person","lexant","lexant","tolerant",1,0.09
9,11987,"four_sliders",3,"Diana","bigoted","female","the most tolerant<br>person in the world","intolerant","the most bigoted<br>person in the world","not bigoted","person","neg_lexant","lexant","tolerant",2,0.87
9,11987,"four_sliders",3,"Charles","bigoted","male","the most tolerant<br>person in the world","intolerant","the most bigoted<br>person in the world","not tolerant","person","neg_positive","lexant","tolerant",3,0.16
9,11987,"four_sliders",3,"Jennifer","bigoted","female","the most tolerant<br>person in the world","intolerant","the most bigoted<br>person in the world","tolerant","person","positive","lexant","tolerant",4,0.92
9,16432,"four_sliders",4,"Angela","crazy","female","the most rational<br>person in the world","irrational","the most crazy<br>person in the world","not rational","person","neg_positive","lexant","rational",1,0.14
9,16432,"four_sliders",4,"Julia","crazy","female","the most rational<br>person in the world","irrational","the most crazy<br>person in the world","not crazy","person","neg_lexant","lexant","rational",2,0.76
9,16432,"four_sliders",4,"John","crazy","male","the most rational<br>person in the world","irrational","the most crazy<br>person in the world","crazy","person","lexant","lexant","rational",3,0.07
9,16432,"four_sliders",4,"Tom","crazy","male","the most rational<br>person in the world","irrational","the most crazy<br>person in the world","rational","person","positive","lexant","rational",4,0.89
9,19881,"four_sliders",5,"Melinda","traitorous","female","the most patriotic<br>person in the world","unpatriotic","the most traitorous<br>person in the world","traitorous","person","lexant","lexant","patriotic",1,0.06
9,19881,"four_sliders",5,"Andrew","traitorous","male","the most patriotic<br>person in the world","unpatriotic","the most traitorous<br>person in the world","patriotic","person","positive","lexant","patriotic",2,0.9
9,19881,"four_sliders",5,"Lee","traitorous","male","the most patriotic<br>person in the world","unpatriotic","the most traitorous<br>person in the world","not patriotic","person","neg_positive","lexant","patriotic",3,0.43
9,19881,"four_sliders",5,"Nicole","traitorous","female","the most patriotic<br>person in the world","unpatriotic","the most traitorous<br>person in the world","not traitorous","person","neg_lexant","lexant","patriotic",4,0.56
9,14814,"four_sliders",6,"Liam","stingy","male","the most generous<br>person in the world","ungenerous","the most stingy<br>person in the world","generous","person","positive","lexant","generous",1,0.91
9,14814,"four_sliders",6,"Lucas","stingy","male","the most generous<br>person in the world","ungenerous","the most stingy<br>person in the world","stingy","person","lexant","lexant","generous",2,0.08
9,14814,"four_sliders",6,"Daniel","stingy","male","the most generous<br>person in the world","ungenerous","the most stingy<br>person in the world","not generous","person","neg_positive","lexant","generous",3,0.16
9,14814,"four_sliders",6,"Alexander","stingy","male","the most generous<br>person in the world","ungenerous","the most stingy<br>person in the world","not stingy","person","neg_lexant","lexant","generous",4,0.71
9,12898,"four_sliders",7,"Samuel","boring","male","the most interesting<br>person in the world","uninteresting","the most boring<br>person in the world","interesting","person","positive","lexant","interesting",1,0.92
9,12898,"four_sliders",7,"Alicia","boring","female","the most interesting<br>person in the world","uninteresting","the most boring<br>person in the world","not boring","person","neg_lexant","lexant","interesting",2,0.64
9,12898,"four_sliders",7,"Laura","boring","female","the most interesting<br>person in the world","uninteresting","the most boring<br>person in the world","not interesting","person","neg_positive","lexant","interesting",3,0.17
9,12898,"four_sliders",7,"Gabriel","boring","male","the most interesting<br>person in the world","uninteresting","the most boring<br>person in the world","boring","person","lexant","lexant","interesting",4,0.1
9,13039,"four_sliders",8,"Stephen","flaky","male","the most reliable<br>person in the world","unreliable","the most flaky<br>person in the world","flaky","person","lexant","lexant","reliable",1,0.08
9,13039,"four_sliders",8,"Michael","flaky","male","the most reliable<br>person in the world","unreliable","the most flaky<br>person in the world","reliable","person","positive","lexant","reliable",2,0.89
9,13039,"four_sliders",8,"Kathleen","flaky","female","the most reliable<br>person in the world","unreliable","the most flaky<br>person in the world","not reliable","person","neg_positive","lexant","reliable",3,0.13
9,13039,"four_sliders",8,"Sasha","flaky","female","the most reliable<br>person in the world","unreliable","the most flaky<br>person in the world","not flaky","person","neg_lexant","lexant","reliable",4,0.63
9,12788,"four_sliders",9,"William","mean","male","the most friendly<br>person in the world","unfriendly","the most mean<br>person in the world","not mean","person","neg_lexant","lexant","friendly",1,0.68
9,12788,"four_sliders",9,"Eric","mean","male","the most friendly<br>person in the world","unfriendly","the most mean<br>person in the world","friendly","person","positive","lexant","friendly",2,0.87
9,12788,"four_sliders",9,"Cameron","mean","male","the most friendly<br>person in the world","unfriendly","the most mean<br>person in the world","mean","person","lexant","lexant","friendly",3,0.08
9,12788,"four_sliders",9,"Sophia","mean","female","the most friendly<br>person in the world","unfriendly","the most mean<br>person in the world","not friendly","person","neg_positive","lexant","friendly",4,0.13
9,9276,"four_sliders",10,"Emma","ignorant","female","the most educated<br>person in the world","uneducated","the most ignorant<br>person in the world","not educated","person","neg_positive","lexant","educated",1,0.11
9,9276,"four_sliders",10,"Jackie","ignorant","female","the most educated<br>person in the world","uneducated","the most ignorant<br>person in the world","ignorant","person","lexant","lexant","educated",2,0.09
9,9276,"four_sliders",10,"Alison","ignorant","female","the most educated<br>person in the world","uneducated","the most ignorant<br>person in the world","educated","person","positive","lexant","educated",3,0.93
9,9276,"four_sliders",10,"Brooke","ignorant","female","the most educated<br>person in the world","uneducated","the most ignorant<br>person in the world","not ignorant","person","neg_lexant","lexant","educated",4,0.59
9,18879,"four_sliders",11,"Stephanie","childish","female","the most mature<br>person in the world","immature","the most childish<br>person in the world","not childish","person","neg_lexant","lexant","mature",1,0.65
9,18879,"four_sliders",11,"Amber","childish","female","the most mature<br>person in the world","immature","the most childish<br>person in the world","childish","person","lexant","lexant","mature",2,0.06
9,18879,"four_sliders",11,"David","childish","male","the most mature<br>person in the world","immature","the most childish<br>person in the world","not mature","person","neg_positive","lexant","mature",3,0.12
9,18879,"four_sliders",11,"Maya","childish","female","the most mature<br>person in the world","immature","the most childish<br>person in the world","mature","person","positive","lexant","mature",4,0.93
9,14171,"four_sliders",12,"Jeremy","stupid","male","the most intelligent<br>person in the world","unintelligent","the most stupid<br>person in the world","stupid","person","lexant","lexant","intelligent",1,0.07
9,14171,"four_sliders",12,"Dylan","stupid","male","the most intelligent<br>person in the world","unintelligent","the most stupid<br>person in the world","intelligent","person","positive","lexant","intelligent",2,0.93
9,14171,"four_sliders",12,"Claire","stupid","female","the most intelligent<br>person in the world","unintelligent","the most stupid<br>person in the world","not intelligent","person","neg_positive","lexant","intelligent",3,0.1
