"workerid","rt","trial_type","trial_num","name","response","gender","endpoint_high","negation","endpoint_low","sentence_type","adjective","referent","positive","superlative_endpoints","slider_position","antonym"
0,18003,"four_sliders",1,"Lee",0.52,"male","most interesting","morphological","most uninteresting","neg_positive","not interesting","person","interesting",0,1,"uninteresting"
0,18003,"four_sliders",1,"Mia",0.51,"female","most interesting","morphological","most uninteresting","positive","interesting","person","interesting",0,2,"uninteresting"
0,18003,"four_sliders",1,"Veronica",0.49,"female","most interesting","morphological","most uninteresting","antonym","uninteresting","person","interesting",0,3,"uninteresting"
0,18003,"four_sliders",1,"Gabriel",0.5,"male","most interesting","morphological","most uninteresting","neg_antonym","not uninteresting","person","interesting",0,4,"uninteresting"
0,11366,"four_sliders",2,"Dylan",0.48,"male","most intelligent","morphological","most unintelligent","positive","intelligent","person","intelligent",0,1,"unintelligent"
0,11366,"four_sliders",2,"Jeremy",0.83,"male","most intelligent","morphological","most unintelligent","antonym","unintelligent","person","intelligent",0,2,"unintelligent"
0,11366,"four_sliders",2,"Alicia",0.41,"female","most intelligent","morphological","most unintelligent","neg_positive","not intelligent","person","intelligent",0,3,"unintelligent"
0,11366,"four_sliders",2,"Maya",0.46,"female","most intelligent","morphological","most unintelligent","neg_antonym","not unintelligent","person","intelligent",0,4,"unintelligent"
0,14811,"four_sliders",3,"Angela",0.45,"female","most attractive","morphological","most unattractive","neg_antonym","not unattractive","person","attractive",0,1,"unattractive"
0,14811,"four_sliders",3,"Kathleen",0.4,"female","most attractive","morphological","most unattractive","antonym","unattractive","person","attractive",0,2,"unattractive"
0,14811,"four_sliders",3,"Kim",0.41,"female","most attractive","morphological","most unattractive","neg_positive","not attractive","person","attractive",0,3,"unattractive"
0,14811,"four_sliders",3,"Jennifer",0.59,"female","most attractive","morphological","most unattractive","positive","attractive","person","attractive",0,4,"unattractive"
0,9804,"four_sliders",4,"Melinda",0.46,"female","most friendly","morphological","most unfriendly","neg_positive","not friendly","person","friendly",0,1,"unfriendly"
0,9804,"four_sliders",4,"Sasha",0.46,"female","most friendly","morphological","most unfriendly","neg_antonym","not unfriendly","person","friendly",0,2,"unfriendly"
0,9804,"four_sliders",4,"Eric",0.41,"male","most friendly","morphological","most unfriendly","antonym","unfriendly","person","friendly",0,3,"unfriendly"
0,9804,"four_sliders",4,"Cameron",0.66,"male","most friendly","morphological","most unfriendly","positive","friendly","person","friendly",0,4,"unfriendly"
0,11233,"four_sliders",5,"Lucas",0.4,"male","most loud","lexical","most quiet","neg_positive","not loud","person","loud",0,1,"quiet"
0,11233,"four_sliders",5,"Sophia",0.69,"female","most loud","lexical","most quiet","neg_antonym","not quiet","person","loud",0,2,"quiet"
0,11233,"four_sliders",5,"Claire",0.28,"female","most loud","lexical","most quiet","antonym","quiet","person","loud",0,3,"quiet"
0,11233,"four_sliders",5,"Emma",0.64,"female","most loud","lexical","most quiet","positive","loud","person","loud",0,4,"quiet"
0,12475,"four_sliders",6,"Michelle",0.27,"female","tallest","lexical","shortest","antonym","short","person","tall",1,1,"short"
0,12475,"four_sliders",6,"Charles",0.68,"male","tallest","lexical","shortest","positive","tall","person","tall",1,2,"short"
0,12475,"four_sliders",6,"Daniel",0.34,"male","tallest","lexical","shortest","neg_positive","not tall","person","tall",1,3,"short"
0,12475,"four_sliders",6,"Alexander",0.72,"male","tallest","lexical","shortest","neg_antonym","not short","person","tall",1,4,"short"
0,31475,"four_sliders",7,"Samuel",0.42,"male","richest","lexical","poorest","neg_positive","not rich","person","rich",1,1,"poor"
0,31475,"four_sliders",7,"Michael",0.67,"male","richest","lexical","poorest","neg_antonym","not poor","person","rich",1,2,"poor"
0,31475,"four_sliders",7,"Diana",0.77,"female","richest","lexical","poorest","positive","rich","person","rich",1,3,"poor"
0,31475,"four_sliders",7,"William",0.2,"male","richest","lexical","poorest","antonym","poor","person","rich",1,4,"poor"
0,8789,"four_sliders",8,"Stephanie",0.71,"female","most honest","morphological","most dishonest","positive","honest","person","honest",0,1,"dishonest"
0,8789,"four_sliders",8,"Alison",0.63,"female","most honest","morphological","most dishonest","neg_antonym","not dishonest","person","honest",0,2,"dishonest"
0,8789,"four_sliders",8,"Laura",0.22,"female","most honest","morphological","most dishonest","neg_positive","not honest","person","honest",0,3,"dishonest"
0,8789,"four_sliders",8,"David",0.17,"male","most honest","morphological","most dishonest","antonym","dishonest","person","honest",0,4,"dishonest"
0,12662,"four_sliders",9,"Andrew",0.39,"male","fattest","lexical","skinniest","neg_positive","not fat","person","fat",1,1,"skinny"
0,12662,"four_sliders",9,"Monica",0.61,"female","fattest","lexical","skinniest","neg_antonym","not skinny","person","fat",1,2,"skinny"
0,12662,"four_sliders",9,"Stephen",0.78,"male","fattest","lexical","skinniest","positive","fat","person","fat",1,3,"skinny"
0,12662,"four_sliders",9,"Julia",0.29,"female","fattest","lexical","skinniest","antonym","skinny","person","fat",1,4,"skinny"
0,8540,"four_sliders",10,"Greg",0.4,"male","strongest","lexical","weakest","neg_positive","not strong","person","strong",1,1,"weak"
0,8540,"four_sliders",10,"Anthony",0.69,"male","strongest","lexical","weakest","positive","strong","person","strong",1,2,"weak"
0,8540,"four_sliders",10,"John",0.14,"male","strongest","lexical","weakest","antonym","weak","person","strong",1,3,"weak"
0,8540,"four_sliders",10,"Tom",0.61,"male","strongest","lexical","weakest","neg_antonym","not weak","person","strong",1,4,"weak"
1,38373,"four_sliders",1,"Maya",0.8,"female","most intelligent","morphological","most unintelligent","neg_antonym","not unintelligent","person","intelligent",0,1,"unintelligent"
1,38373,"four_sliders",1,"Diana",0.92,"female","most intelligent","morphological","most unintelligent","positive","intelligent","person","intelligent",0,2,"unintelligent"
1,38373,"four_sliders",1,"Lucas",0.28,"male","most intelligent","morphological","most unintelligent","neg_positive","not intelligent","person","intelligent",0,3,"unintelligent"
1,38373,"four_sliders",1,"Samuel",0.03,"male","most intelligent","morphological","most unintelligent","antonym","unintelligent","person","intelligent",0,4,"unintelligent"
1,25548,"four_sliders",2,"Veronica",0.29,"female","most beautiful","lexical","most ugly","neg_positive","not beautiful","person","beautiful",0,1,"ugly"
1,25548,"four_sliders",2,"Daniel",0.54,"male","most beautiful","lexical","most ugly","neg_antonym","not ugly","person","beautiful",0,2,"ugly"
1,25548,"four_sliders",2,"Jennifer",0.03,"female","most beautiful","lexical","most ugly","antonym","ugly","person","beautiful",0,3,"ugly"
1,25548,"four_sliders",2,"William",0.9,"male","most beautiful","lexical","most ugly","positive","beautiful","person","beautiful",0,4,"ugly"
1,19405,"four_sliders",3,"Emma",0.81,"female","most interesting","morphological","most uninteresting","positive","interesting","person","interesting",0,1,"uninteresting"
1,19405,"four_sliders",3,"Alicia",0.34,"female","most interesting","morphological","most uninteresting","antonym","uninteresting","person","interesting",0,2,"uninteresting"
1,19405,"four_sliders",3,"Monica",0.59,"female","most interesting","morphological","most uninteresting","neg_antonym","not uninteresting","person","interesting",0,3,"uninteresting"
1,19405,"four_sliders",3,"Tom",0.13,"male","most interesting","morphological","most uninteresting","neg_positive","not interesting","person","interesting",0,4,"uninteresting"
1,22986,"four_sliders",4,"Stephanie",0.06,"female","most mature","morphological","most immature","antonym","immature","person","mature",0,1,"immature"
1,22986,"four_sliders",4,"Angela",0.58,"female","most mature","morphological","most immature","neg_antonym","not immature","person","mature",0,2,"immature"
1,22986,"four_sliders",4,"Greg",0.9,"male","most mature","morphological","most immature","positive","mature","person","mature",0,3,"immature"
1,22986,"four_sliders",4,"Gabriel",0.23,"male","most mature","morphological","most immature","neg_positive","not mature","person","mature",0,4,"immature"
1,14383,"four_sliders",5,"Dylan",0.31,"male","most successful","morphological","most unsuccessful","antonym","unsuccessful","person","successful",0,1,"unsuccessful"
1,14383,"four_sliders",5,"Kathleen",0.12,"female","most successful","morphological","most unsuccessful","neg_positive","not successful","person","successful",0,2,"unsuccessful"
1,14383,"four_sliders",5,"Charles",0.59,"male","most successful","morphological","most unsuccessful","neg_antonym","not unsuccessful","person","successful",0,3,"unsuccessful"
1,14383,"four_sliders",5,"Cameron",0.92,"male","most successful","morphological","most unsuccessful","positive","successful","person","successful",0,4,"unsuccessful"
1,22967,"four_sliders",6,"Michael",0.85,"male","most hard-working","lexical","most lazy","positive","hard-working","person","hard-working",0,1,"lazy"
1,22967,"four_sliders",6,"Claire",0.58,"female","most hard-working","lexical","most lazy","neg_antonym","not lazy","person","hard-working",0,2,"lazy"
1,22967,"four_sliders",6,"Melinda",0.07,"female","most hard-working","lexical","most lazy","antonym","lazy","person","hard-working",0,3,"lazy"
1,22967,"four_sliders",6,"David",0.32,"male","most hard-working","lexical","most lazy","neg_positive","not hard-working","person","hard-working",0,4,"lazy"
1,8085,"four_sliders",7,"Sophia",0.14,"female","most polite","morphological","most impolite","antonym","impolite","person","polite",0,1,"impolite"
1,8085,"four_sliders",7,"Jeremy",0.31,"male","most polite","morphological","most impolite","neg_positive","not polite","person","polite",0,2,"impolite"
1,8085,"four_sliders",7,"Laura",0.94,"female","most polite","morphological","most impolite","positive","polite","person","polite",0,3,"impolite"
1,8085,"four_sliders",7,"Andrew",0.67,"male","most polite","morphological","most impolite","neg_antonym","not impolite","person","polite",0,4,"impolite"
1,10360,"four_sliders",8,"Alison",0.59,"female","tallest","lexical","shortest","neg_antonym","not short","person","tall",1,1,"short"
1,10360,"four_sliders",8,"Alexander",0.91,"male","tallest","lexical","shortest","positive","tall","person","tall",1,2,"short"
1,10360,"four_sliders",8,"Kim",0.08,"female","tallest","lexical","shortest","antonym","short","person","tall",1,3,"short"
1,10360,"four_sliders",8,"Anthony",0.34,"male","tallest","lexical","shortest","neg_positive","not tall","person","tall",1,4,"short"
1,37346,"four_sliders",9,"Eric",0.95,"male","most loud","lexical","most quiet","positive","loud","person","loud",0,1,"quiet"
1,37346,"four_sliders",9,"Lee",0.64,"male","most loud","lexical","most quiet","neg_antonym","not quiet","person","loud",0,2,"quiet"
1,37346,"four_sliders",9,"Michelle",0.08,"female","most loud","lexical","most quiet","antonym","quiet","person","loud",0,3,"quiet"
1,37346,"four_sliders",9,"Julia",0.33,"female","most loud","lexical","most quiet","neg_positive","not loud","person","loud",0,4,"quiet"
1,11602,"four_sliders",10,"Mia",0.65,"female","most brave","lexical","most cowardly","neg_antonym","not cowardly","person","brave",0,1,"cowardly"
1,11602,"four_sliders",10,"Stephen",0.97,"male","most brave","lexical","most cowardly","positive","brave","person","brave",0,2,"cowardly"
1,11602,"four_sliders",10,"Sasha",0.39,"female","most brave","lexical","most cowardly","neg_positive","not brave","person","brave",0,3,"cowardly"
1,11602,"four_sliders",10,"John",0.07,"male","most brave","lexical","most cowardly","antonym","cowardly","person","brave",0,4,"cowardly"
2,13485,"four_sliders",1,"Veronica",0.14,"female","richest","lexical","poorest","antonym","poor","person","rich",1,1,"poor"
2,13485,"four_sliders",1,"Stephen",0.43,"male","richest","lexical","poorest","neg_positive","not rich","person","rich",1,2,"poor"
2,13485,"four_sliders",1,"Kathleen",0.73,"female","richest","lexical","poorest","positive","rich","person","rich",1,3,"poor"
2,13485,"four_sliders",1,"Anthony",0.49,"male","richest","lexical","poorest","neg_antonym","not poor","person","rich",1,4,"poor"
2,14368,"four_sliders",2,"Julia",0.7,"female","most intelligent","morphological","most unintelligent","neg_antonym","not unintelligent","person","intelligent",0,1,"unintelligent"
2,14368,"four_sliders",2,"Lucas",0.25,"male","most intelligent","morphological","most unintelligent","neg_positive","not intelligent","person","intelligent",0,2,"unintelligent"
2,14368,"four_sliders",2,"Laura",0.18,"female","most intelligent","morphological","most unintelligent","antonym","unintelligent","person","intelligent",0,3,"unintelligent"
2,14368,"four_sliders",2,"Alicia",0.7,"female","most intelligent","morphological","most unintelligent","positive","intelligent","person","intelligent",0,4,"unintelligent"
2,25039,"four_sliders",3,"Jennifer",0.75,"female","fattest","lexical","skinniest","positive","fat","person","fat",1,1,"skinny"
2,25039,"four_sliders",3,"Alison",0.16,"female","fattest","lexical","skinniest","antonym","skinny","person","fat",1,2,"skinny"
2,25039,"four_sliders",3,"Claire",0.2,"female","fattest","lexical","skinniest","neg_positive","not fat","person","fat",1,3,"skinny"
2,25039,"four_sliders",3,"Michelle",0.7,"female","fattest","lexical","skinniest","neg_antonym","not skinny","person","fat",1,4,"skinny"
2,19271,"four_sliders",4,"Eric",0.2,"male","most beautiful","lexical","most ugly","antonym","ugly","person","beautiful",0,1,"ugly"
2,19271,"four_sliders",4,"Kim",0.72,"female","most beautiful","lexical","most ugly","neg_antonym","not ugly","person","beautiful",0,2,"ugly"
2,19271,"four_sliders",4,"Dylan",0.77,"male","most beautiful","lexical","most ugly","positive","beautiful","person","beautiful",0,3,"ugly"
2,19271,"four_sliders",4,"Melinda",0.21,"female","most beautiful","lexical","most ugly","neg_positive","not beautiful","person","beautiful",0,4,"ugly"
2,8151,"four_sliders",5,"Alexander",0.17,"male","strongest","lexical","weakest","neg_positive","not strong","person","strong",1,1,"weak"
2,8151,"four_sliders",5,"Monica",0.16,"female","strongest","lexical","weakest","antonym","weak","person","strong",1,2,"weak"
2,8151,"four_sliders",5,"Charles",0.75,"male","strongest","lexical","weakest","neg_antonym","not weak","person","strong",1,3,"weak"
2,8151,"four_sliders",5,"Diana",0.78,"female","strongest","lexical","weakest","positive","strong","person","strong",1,4,"weak"
2,7633,"four_sliders",6,"Sasha",0.74,"female","most honest","morphological","most dishonest","neg_antonym","not dishonest","person","honest",0,1,"dishonest"
2,7633,"four_sliders",6,"Jeremy",0.73,"male","most honest","morphological","most dishonest","positive","honest","person","honest",0,2,"dishonest"
2,7633,"four_sliders",6,"Angela",0.15,"female","most honest","morphological","most dishonest","neg_positive","not honest","person","honest",0,3,"dishonest"
2,7633,"four_sliders",6,"Gabriel",0.15,"male","most honest","morphological","most dishonest","antonym","dishonest","person","honest",0,4,"dishonest"
2,11423,"four_sliders",7,"David",0.75,"male","most hard-working","lexical","most lazy","neg_antonym","not lazy","person","hard-working",0,1,"lazy"
2,11423,"four_sliders",7,"Greg",0.19,"male","most hard-working","lexical","most lazy","neg_positive","not hard-working","person","hard-working",0,2,"lazy"
2,11423,"four_sliders",7,"Samuel",0.18,"male","most hard-working","lexical","most lazy","antonym","lazy","person","hard-working",0,3,"lazy"
2,11423,"four_sliders",7,"Andrew",0.75,"male","most hard-working","lexical","most lazy","positive","hard-working","person","hard-working",0,4,"lazy"
2,7743,"four_sliders",8,"Cameron",0.18,"male","most successful","morphological","most unsuccessful","antonym","unsuccessful","person","successful",0,1,"unsuccessful"
2,7743,"four_sliders",8,"Maya",0.17,"female","most successful","morphological","most unsuccessful","neg_positive","not successful","person","successful",0,2,"unsuccessful"
2,7743,"four_sliders",8,"Stephanie",0.71,"female","most successful","morphological","most unsuccessful","positive","successful","person","successful",0,3,"unsuccessful"
2,7743,"four_sliders",8,"Lee",0.62,"male","most successful","morphological","most unsuccessful","neg_antonym","not unsuccessful","person","successful",0,4,"unsuccessful"
2,11119,"four_sliders",9,"John",0.16,"male","most mature","morphological","most immature","antonym","immature","person","mature",0,1,"immature"
2,11119,"four_sliders",9,"Tom",0.17,"male","most mature","morphological","most immature","neg_positive","not mature","person","mature",0,2,"immature"
2,11119,"four_sliders",9,"Michael",0.79,"male","most mature","morphological","most immature","neg_antonym","not immature","person","mature",0,3,"immature"
2,11119,"four_sliders",9,"Emma",0.77,"female","most mature","morphological","most immature","positive","mature","person","mature",0,4,"immature"
2,12696,"four_sliders",10,"William",0.21,"male","most educated","morphological","most uneducated","antonym","uneducated","person","educated",0,1,"uneducated"
2,12696,"four_sliders",10,"Mia",0.75,"female","most educated","morphological","most uneducated","positive","educated","person","educated",0,2,"uneducated"
2,12696,"four_sliders",10,"Daniel",0.64,"male","most educated","morphological","most uneducated","neg_antonym","not uneducated","person","educated",0,3,"uneducated"
2,12696,"four_sliders",10,"Sophia",0.24,"female","most educated","morphological","most uneducated","neg_positive","not educated","person","educated",0,4,"uneducated"
3,15807,"four_sliders",1,"Stephanie",1,"female","most honest","morphological","most dishonest","positive","honest","person","honest",0,1,"dishonest"
3,15807,"four_sliders",1,"Jeremy",0,"male","most honest","morphological","most dishonest","antonym","dishonest","person","honest",0,2,"dishonest"
3,15807,"four_sliders",1,"Maya",0,"female","most honest","morphological","most dishonest","neg_positive","not honest","person","honest",0,3,"dishonest"
3,15807,"four_sliders",1,"John",0.75,"male","most honest","morphological","most dishonest","neg_antonym","not dishonest","person","honest",0,4,"dishonest"
3,27391,"four_sliders",2,"Tom",0.84,"male","most interesting","morphological","most uninteresting","positive","interesting","person","interesting",0,1,"uninteresting"
3,27391,"four_sliders",2,"Gabriel",0.5,"male","most interesting","morphological","most uninteresting","neg_antonym","not uninteresting","person","interesting",0,2,"uninteresting"
3,27391,"four_sliders",2,"Alison",0,"female","most interesting","morphological","most uninteresting","neg_positive","not interesting","person","interesting",0,3,"uninteresting"
3,27391,"four_sliders",2,"Jennifer",0.21,"female","most interesting","morphological","most uninteresting","antonym","uninteresting","person","interesting",0,4,"uninteresting"
3,10367,"four_sliders",3,"Michael",0.76,"male","most wise","lexical","most foolish","positive","wise","person","wise",0,1,"foolish"
3,10367,"four_sliders",3,"Sasha",0.21,"female","most wise","lexical","most foolish","neg_antonym","not foolish","person","wise",0,2,"foolish"
3,10367,"four_sliders",3,"Charles",0.58,"male","most wise","lexical","most foolish","antonym","foolish","person","wise",0,3,"foolish"
3,10367,"four_sliders",3,"Diana",0.22,"female","most wise","lexical","most foolish","neg_positive","not wise","person","wise",0,4,"foolish"
3,11647,"four_sliders",4,"Julia",0.01,"female","most mature","morphological","most immature","antonym","immature","person","mature",0,1,"immature"
3,11647,"four_sliders",4,"Cameron",0.82,"male","most mature","morphological","most immature","neg_antonym","not immature","person","mature",0,2,"immature"
3,11647,"four_sliders",4,"Samuel",0.21,"male","most mature","morphological","most immature","neg_positive","not mature","person","mature",0,3,"immature"
3,11647,"four_sliders",4,"Monica",1,"female","most mature","morphological","most immature","positive","mature","person","mature",0,4,"immature"
3,9783,"four_sliders",5,"Lucas",1,"male","most attractive","morphological","most unattractive","positive","attractive","person","attractive",0,1,"unattractive"
3,9783,"four_sliders",5,"Greg",0,"male","most attractive","morphological","most unattractive","antonym","unattractive","person","attractive",0,2,"unattractive"
3,9783,"four_sliders",5,"Alexander",0.22,"male","most attractive","morphological","most unattractive","neg_antonym","not unattractive","person","attractive",0,3,"unattractive"
3,9783,"four_sliders",5,"David",0.32,"male","most attractive","morphological","most unattractive","neg_positive","not attractive","person","attractive",0,4,"unattractive"
3,12703,"four_sliders",6,"Lee",0,"male","tallest","lexical","shortest","antonym","short","person","tall",1,1,"short"
3,12703,"four_sliders",6,"Michelle",0.99,"female","tallest","lexical","shortest","positive","tall","person","tall",1,2,"short"
3,12703,"four_sliders",6,"Claire",0.87,"female","tallest","lexical","shortest","neg_antonym","not short","person","tall",1,3,"short"
3,12703,"four_sliders",6,"Anthony",0.06,"male","tallest","lexical","shortest","neg_positive","not tall","person","tall",1,4,"short"
3,41743,"four_sliders",7,"Mia",0,"female","most proud","lexical","most humble","neg_antonym","not humble","person","proud",0,1,"humble"
3,41743,"four_sliders",7,"Emma",0.75,"female","most proud","lexical","most humble","positive","proud","person","proud",0,2,"humble"
3,41743,"four_sliders",7,"William",0.12,"male","most proud","lexical","most humble","neg_positive","not proud","person","proud",0,3,"humble"
3,41743,"four_sliders",7,"Stephen",0.96,"male","most proud","lexical","most humble","antonym","humble","person","proud",0,4,"humble"
3,8911,"four_sliders",8,"Kathleen",0.79,"female","most hard-working","lexical","most lazy","neg_antonym","not lazy","person","hard-working",0,1,"lazy"
3,8911,"four_sliders",8,"Sophia",1,"female","most hard-working","lexical","most lazy","positive","hard-working","person","hard-working",0,2,"lazy"
3,8911,"four_sliders",8,"Daniel",0.19,"male","most hard-working","lexical","most lazy","neg_positive","not hard-working","person","hard-working",0,3,"lazy"
3,8911,"four_sliders",8,"Laura",0,"female","most hard-working","lexical","most lazy","antonym","lazy","person","hard-working",0,4,"lazy"
3,8536,"four_sliders",9,"Alicia",1,"female","happiest","morphological","unhappiest","positive","happy","person","happy",1,1,"unhappy"
3,8536,"four_sliders",9,"Kim",0.14,"female","happiest","morphological","unhappiest","antonym","unhappy","person","happy",1,2,"unhappy"
3,8536,"four_sliders",9,"Melinda",0,"female","happiest","morphological","unhappiest","neg_positive","not happy","person","happy",1,3,"unhappy"
3,8536,"four_sliders",9,"Veronica",0.58,"female","happiest","morphological","unhappiest","neg_antonym","not unhappy","person","happy",1,4,"unhappy"
3,8742,"four_sliders",10,"Angela",0.69,"female","most brave","lexical","most cowardly","neg_antonym","not cowardly","person","brave",0,1,"cowardly"
3,8742,"four_sliders",10,"Eric",0,"male","most brave","lexical","most cowardly","antonym","cowardly","person","brave",0,2,"cowardly"
3,8742,"four_sliders",10,"Dylan",0.09,"male","most brave","lexical","most cowardly","neg_positive","not brave","person","brave",0,3,"cowardly"
3,8742,"four_sliders",10,"Andrew",0.86,"male","most brave","lexical","most cowardly","positive","brave","person","brave",0,4,"cowardly"
4,28396,"four_sliders",1,"Sophia",0.45,"female","most loud","lexical","most quiet","neg_positive","not loud","person","loud",0,1,"quiet"
4,28396,"four_sliders",1,"Jeremy",0.72,"male","most loud","lexical","most quiet","positive","loud","person","loud",0,2,"quiet"
4,28396,"four_sliders",1,"Alexander",0.62,"male","most loud","lexical","most quiet","neg_antonym","not quiet","person","loud",0,3,"quiet"
4,28396,"four_sliders",1,"John",0.32,"male","most loud","lexical","most quiet","antonym","quiet","person","loud",0,4,"quiet"
4,8806,"four_sliders",2,"Charles",0.58,"male","tallest","lexical","shortest","neg_antonym","not short","person","tall",1,1,"short"
4,8806,"four_sliders",2,"Diana",0.33,"female","tallest","lexical","shortest","neg_positive","not tall","person","tall",1,2,"short"
4,8806,"four_sliders",2,"Mia",0.73,"female","tallest","lexical","shortest","positive","tall","person","tall",1,3,"short"
4,8806,"four_sliders",2,"Tom",0.26,"male","tallest","lexical","shortest","antonym","short","person","tall",1,4,"short"
4,7712,"four_sliders",3,"Eric",0.65,"male","fattest","lexical","skinniest","positive","fat","person","fat",1,1,"skinny"
4,7712,"four_sliders",3,"Andrew",0.61,"male","fattest","lexical","skinniest","neg_antonym","not skinny","person","fat",1,2,"skinny"
4,7712,"four_sliders",3,"Lee",0.37,"male","fattest","lexical","skinniest","neg_positive","not fat","person","fat",1,3,"skinny"
4,7712,"four_sliders",3,"Alison",0.27,"female","fattest","lexical","skinniest","antonym","skinny","person","fat",1,4,"skinny"
4,10135,"four_sliders",4,"Michael",0.59,"male","most polite","morphological","most impolite","neg_antonym","not impolite","person","polite",0,1,"impolite"
4,10135,"four_sliders",4,"Jennifer",0.37,"female","most polite","morphological","most impolite","antonym","impolite","person","polite",0,2,"impolite"
4,10135,"four_sliders",4,"Anthony",0.61,"male","most polite","morphological","most impolite","positive","polite","person","polite",0,3,"impolite"
4,10135,"four_sliders",4,"Melinda",0.28,"female","most polite","morphological","most impolite","neg_positive","not polite","person","polite",0,4,"impolite"
4,29728,"four_sliders",5,"Alicia",0.4,"female","happiest","morphological","unhappiest","antonym","unhappy","person","happy",1,1,"unhappy"
4,29728,"four_sliders",5,"Michelle",0.59,"female","happiest","morphological","unhappiest","neg_antonym","not unhappy","person","happy",1,2,"unhappy"
4,29728,"four_sliders",5,"Cameron",0.64,"male","happiest","morphological","unhappiest","positive","happy","person","happy",1,3,"unhappy"
4,29728,"four_sliders",5,"David",0.35,"male","happiest","morphological","unhappiest","neg_positive","not happy","person","happy",1,4,"unhappy"
4,6520,"four_sliders",6,"Claire",0.42,"female","most beautiful","lexical","most ugly","neg_positive","not beautiful","person","beautiful",0,1,"ugly"
4,6520,"four_sliders",6,"Angela",0.34,"female","most beautiful","lexical","most ugly","antonym","ugly","person","beautiful",0,2,"ugly"
4,6520,"four_sliders",6,"Greg",0.56,"male","most beautiful","lexical","most ugly","neg_antonym","not ugly","person","beautiful",0,3,"ugly"
4,6520,"four_sliders",6,"Emma",0.63,"female","most beautiful","lexical","most ugly","positive","beautiful","person","beautiful",0,4,"ugly"
4,6750,"four_sliders",7,"Monica",0.55,"female","strongest","lexical","weakest","neg_antonym","not weak","person","strong",1,1,"weak"
4,6750,"four_sliders",7,"Kathleen",0.34,"female","strongest","lexical","weakest","antonym","weak","person","strong",1,2,"weak"
4,6750,"four_sliders",7,"Veronica",0.61,"female","strongest","lexical","weakest","positive","strong","person","strong",1,3,"weak"
4,6750,"four_sliders",7,"Sasha",0.38,"female","strongest","lexical","weakest","neg_positive","not strong","person","strong",1,4,"weak"
4,8112,"four_sliders",8,"Laura",0.57,"female","most attractive","morphological","most unattractive","positive","attractive","person","attractive",0,1,"unattractive"
4,8112,"four_sliders",8,"William",0.34,"male","most attractive","morphological","most unattractive","antonym","unattractive","person","attractive",0,2,"unattractive"
4,8112,"four_sliders",8,"Stephanie",0.53,"female","most attractive","morphological","most unattractive","neg_antonym","not unattractive","person","attractive",0,3,"unattractive"
4,8112,"four_sliders",8,"Gabriel",0.39,"male","most attractive","morphological","most unattractive","neg_positive","not attractive","person","attractive",0,4,"unattractive"
4,7942,"four_sliders",9,"Daniel",0.36,"male","most friendly","morphological","most unfriendly","antonym","unfriendly","person","friendly",0,1,"unfriendly"
4,7942,"four_sliders",9,"Maya",0.58,"female","most friendly","morphological","most unfriendly","positive","friendly","person","friendly",0,2,"unfriendly"
4,7942,"four_sliders",9,"Stephen",0.53,"male","most friendly","morphological","most unfriendly","neg_antonym","not unfriendly","person","friendly",0,3,"unfriendly"
4,7942,"four_sliders",9,"Samuel",0.36,"male","most friendly","morphological","most unfriendly","neg_positive","not friendly","person","friendly",0,4,"unfriendly"
4,6776,"four_sliders",10,"Lucas",0.35,"male","most intelligent","morphological","most unintelligent","neg_positive","not intelligent","person","intelligent",0,1,"unintelligent"
4,6776,"four_sliders",10,"Kim",0.55,"female","most intelligent","morphological","most unintelligent","neg_antonym","not unintelligent","person","intelligent",0,2,"unintelligent"
4,6776,"four_sliders",10,"Dylan",0.58,"male","most intelligent","morphological","most unintelligent","positive","intelligent","person","intelligent",0,3,"unintelligent"
4,6776,"four_sliders",10,"Julia",0.37,"female","most intelligent","morphological","most unintelligent","antonym","unintelligent","person","intelligent",0,4,"unintelligent"
5,18617,"four_sliders",1,"Dylan",0.75,"male","most mature","morphological","most immature","neg_antonym","not immature","person","mature",0,1,"immature"
5,18617,"four_sliders",1,"Kim",0.09,"female","most mature","morphological","most immature","antonym","immature","person","mature",0,2,"immature"
5,18617,"four_sliders",1,"Stephen",0.88,"male","most mature","morphological","most immature","positive","mature","person","mature",0,3,"immature"
5,18617,"four_sliders",1,"Greg",0.32,"male","most mature","morphological","most immature","neg_positive","not mature","person","mature",0,4,"immature"
5,10877,"four_sliders",2,"Lucas",0.22,"male","most honest","morphological","most dishonest","antonym","dishonest","person","honest",0,1,"dishonest"
5,10877,"four_sliders",2,"Diana",0.82,"female","most honest","morphological","most dishonest","positive","honest","person","honest",0,2,"dishonest"
5,10877,"four_sliders",2,"Laura",0.22,"female","most honest","morphological","most dishonest","neg_positive","not honest","person","honest",0,3,"dishonest"
5,10877,"four_sliders",2,"Michael",0.52,"male","most honest","morphological","most dishonest","neg_antonym","not dishonest","person","honest",0,4,"dishonest"
5,8568,"four_sliders",3,"Charles",0.17,"male","tallest","lexical","shortest","antonym","short","person","tall",1,1,"short"
5,8568,"four_sliders",3,"Julia",0.26,"female","tallest","lexical","shortest","neg_positive","not tall","person","tall",1,2,"short"
5,8568,"four_sliders",3,"Stephanie",0.48,"female","tallest","lexical","shortest","neg_antonym","not short","person","tall",1,3,"short"
5,8568,"four_sliders",3,"Tom",0.87,"male","tallest","lexical","shortest","positive","tall","person","tall",1,4,"short"
5,11704,"four_sliders",4,"John",0.14,"male","most brave","lexical","most cowardly","antonym","cowardly","person","brave",0,1,"cowardly"
5,11704,"four_sliders",4,"Kathleen",0.85,"female","most brave","lexical","most cowardly","positive","brave","person","brave",0,2,"cowardly"
5,11704,"four_sliders",4,"Andrew",0.48,"male","most brave","lexical","most cowardly","neg_antonym","not cowardly","person","brave",0,3,"cowardly"
5,11704,"four_sliders",4,"David",0.23,"male","most brave","lexical","most cowardly","neg_positive","not brave","person","brave",0,4,"cowardly"
5,9024,"four_sliders",5,"Jennifer",0.8,"female","most successful","morphological","most unsuccessful","positive","successful","person","successful",0,1,"unsuccessful"
5,9024,"four_sliders",5,"Angela",0.16,"female","most successful","morphological","most unsuccessful","neg_positive","not successful","person","successful",0,2,"unsuccessful"
5,9024,"four_sliders",5,"Claire",0.56,"female","most successful","morphological","most unsuccessful","neg_antonym","not unsuccessful","person","successful",0,3,"unsuccessful"
5,9024,"four_sliders",5,"Jeremy",0.3,"male","most successful","morphological","most unsuccessful","antonym","unsuccessful","person","successful",0,4,"unsuccessful"
5,9693,"four_sliders",6,"Alexander",0.49,"male","richest","lexical","poorest","neg_positive","not rich","person","rich",1,1,"poor"
5,9693,"four_sliders",6,"William",0.08,"male","richest","lexical","poorest","antonym","poor","person","rich",1,2,"poor"
5,9693,"four_sliders",6,"Daniel",0.8,"male","richest","lexical","poorest","positive","rich","person","rich",1,3,"poor"
5,9693,"four_sliders",6,"Gabriel",0.43,"male","richest","lexical","poorest","neg_antonym","not poor","person","rich",1,4,"poor"
5,11462,"four_sliders",7,"Alison",0.46,"female","most educated","morphological","most uneducated","neg_positive","not educated","person","educated",0,1,"uneducated"
5,11462,"four_sliders",7,"Melinda",0.42,"female","most educated","morphological","most uneducated","neg_antonym","not uneducated","person","educated",0,2,"uneducated"
5,11462,"four_sliders",7,"Alicia",0.18,"female","most educated","morphological","most uneducated","antonym","uneducated","person","educated",0,3,"uneducated"
5,11462,"four_sliders",7,"Sasha",0.8,"female","most educated","morphological","most uneducated","positive","educated","person","educated",0,4,"uneducated"
5,5360,"four_sliders",8,"Monica",0.25,"female","most interesting","morphological","most uninteresting","antonym","uninteresting","person","interesting",0,1,"uninteresting"
5,5360,"four_sliders",8,"Sophia",0.48,"female","most interesting","morphological","most uninteresting","neg_positive","not interesting","person","interesting",0,2,"uninteresting"
5,5360,"four_sliders",8,"Lee",0.79,"male","most interesting","morphological","most uninteresting","positive","interesting","person","interesting",0,3,"uninteresting"
5,5360,"four_sliders",8,"Cameron",0.44,"male","most interesting","morphological","most uninteresting","neg_antonym","not uninteresting","person","interesting",0,4,"uninteresting"
5,11056,"four_sliders",9,"Mia",0.45,"female","most proud","lexical","most humble","neg_positive","not proud","person","proud",0,1,"humble"
5,11056,"four_sliders",9,"Anthony",0.15,"male","most proud","lexical","most humble","antonym","humble","person","proud",0,2,"humble"
5,11056,"four_sliders",9,"Michelle",0.44,"female","most proud","lexical","most humble","neg_antonym","not humble","person","proud",0,3,"humble"
5,11056,"four_sliders",9,"Samuel",0.84,"male","most proud","lexical","most humble","positive","proud","person","proud",0,4,"humble"
5,11095,"four_sliders",10,"Maya",0.47,"female","fattest","lexical","skinniest","neg_antonym","not skinny","person","fat",1,1,"skinny"
5,11095,"four_sliders",10,"Emma",0.18,"female","fattest","lexical","skinniest","neg_positive","not fat","person","fat",1,2,"skinny"
5,11095,"four_sliders",10,"Eric",0.85,"male","fattest","lexical","skinniest","positive","fat","person","fat",1,3,"skinny"
5,11095,"four_sliders",10,"Veronica",0.1,"female","fattest","lexical","skinniest","antonym","skinny","person","fat",1,4,"skinny"
6,29312,"four_sliders",1,"Anthony",0.7,"male","most honest","morphological","most dishonest","neg_antonym","not dishonest","person","honest",0,1,"dishonest"
6,29312,"four_sliders",1,"Daniel",1,"male","most honest","morphological","most dishonest","positive","honest","person","honest",0,2,"dishonest"
6,29312,"four_sliders",1,"Alison",0,"female","most honest","morphological","most dishonest","antonym","dishonest","person","honest",0,3,"dishonest"
6,29312,"four_sliders",1,"Michelle",0.93,"female","most honest","morphological","most dishonest","neg_positive","not honest","person","honest",0,4,"dishonest"
6,32283,"four_sliders",2,"Andrew",0.38,"male","most wise","lexical","most foolish","neg_antonym","not foolish","person","wise",0,1,"foolish"
6,32283,"four_sliders",2,"Sasha",0,"female","most wise","lexical","most foolish","antonym","foolish","person","wise",0,2,"foolish"
6,32283,"four_sliders",2,"Mia",1,"female","most wise","lexical","most foolish","positive","wise","person","wise",0,3,"foolish"
6,32283,"four_sliders",2,"Monica",0.57,"female","most wise","lexical","most foolish","neg_positive","not wise","person","wise",0,4,"foolish"
6,21353,"four_sliders",3,"Lucas",0.12,"male","most educated","morphological","most uneducated","antonym","uneducated","person","educated",0,1,"uneducated"
6,21353,"four_sliders",3,"Melinda",0.78,"female","most educated","morphological","most uneducated","neg_antonym","not uneducated","person","educated",0,2,"uneducated"
6,21353,"four_sliders",3,"Samuel",1,"male","most educated","morphological","most uneducated","positive","educated","person","educated",0,3,"uneducated"
6,21353,"four_sliders",3,"Jennifer",0.78,"female","most educated","morphological","most uneducated","neg_positive","not educated","person","educated",0,4,"uneducated"
6,14880,"four_sliders",4,"Gabriel",0.61,"male","fattest","lexical","skinniest","neg_antonym","not skinny","person","fat",1,1,"skinny"
6,14880,"four_sliders",4,"Greg",0.24,"male","fattest","lexical","skinniest","neg_positive","not fat","person","fat",1,2,"skinny"
6,14880,"four_sliders",4,"Emma",0.92,"female","fattest","lexical","skinniest","positive","fat","person","fat",1,3,"skinny"
6,14880,"four_sliders",4,"Angela",0.06,"female","fattest","lexical","skinniest","antonym","skinny","person","fat",1,4,"skinny"
6,21461,"four_sliders",5,"Julia",1,"female","most successful","morphological","most unsuccessful","positive","successful","person","successful",0,1,"unsuccessful"
6,21461,"four_sliders",5,"Stephanie",0.62,"female","most successful","morphological","most unsuccessful","neg_antonym","not unsuccessful","person","successful",0,2,"unsuccessful"
6,21461,"four_sliders",5,"Sophia",0.23,"female","most successful","morphological","most unsuccessful","neg_positive","not successful","person","successful",0,3,"unsuccessful"
6,21461,"four_sliders",5,"Eric",0,"male","most successful","morphological","most unsuccessful","antonym","unsuccessful","person","successful",0,4,"unsuccessful"
6,16430,"four_sliders",6,"Alicia",0.68,"female","most loud","lexical","most quiet","neg_antonym","not quiet","person","loud",0,1,"quiet"
6,16430,"four_sliders",6,"Maya",0.07,"female","most loud","lexical","most quiet","antonym","quiet","person","loud",0,2,"quiet"
6,16430,"four_sliders",6,"John",0.27,"male","most loud","lexical","most quiet","neg_positive","not loud","person","loud",0,3,"quiet"
6,16430,"four_sliders",6,"Cameron",1,"male","most loud","lexical","most quiet","positive","loud","person","loud",0,4,"quiet"
6,11354,"four_sliders",7,"Tom",0.95,"male","strongest","lexical","weakest","positive","strong","person","strong",1,1,"weak"
6,11354,"four_sliders",7,"Kim",0.1,"female","strongest","lexical","weakest","neg_positive","not strong","person","strong",1,2,"weak"
6,11354,"four_sliders",7,"Lee",0.81,"male","strongest","lexical","weakest","neg_antonym","not weak","person","strong",1,3,"weak"
6,11354,"four_sliders",7,"Claire",0,"female","strongest","lexical","weakest","antonym","weak","person","strong",1,4,"weak"
6,15781,"four_sliders",8,"Stephen",1,"male","most polite","morphological","most impolite","positive","polite","person","polite",0,1,"impolite"
6,15781,"four_sliders",8,"Jeremy",0.07,"male","most polite","morphological","most impolite","neg_positive","not polite","person","polite",0,2,"impolite"
6,15781,"four_sliders",8,"Veronica",0,"female","most polite","morphological","most impolite","antonym","impolite","person","polite",0,3,"impolite"
6,15781,"four_sliders",8,"William",0.89,"male","most polite","morphological","most impolite","neg_antonym","not impolite","person","polite",0,4,"impolite"
6,13772,"four_sliders",9,"David",0.7,"male","richest","lexical","poorest","neg_antonym","not poor","person","rich",1,1,"poor"
6,13772,"four_sliders",9,"Laura",0.29,"female","richest","lexical","poorest","neg_positive","not rich","person","rich",1,2,"poor"
6,13772,"four_sliders",9,"Charles",0,"male","richest","lexical","poorest","antonym","poor","person","rich",1,3,"poor"
6,13772,"four_sliders",9,"Dylan",1,"male","richest","lexical","poorest","positive","rich","person","rich",1,4,"poor"
6,13513,"four_sliders",10,"Michael",1,"male","happiest","morphological","unhappiest","positive","happy","person","happy",1,1,"unhappy"
6,13513,"four_sliders",10,"Diana",0.63,"female","happiest","morphological","unhappiest","neg_antonym","not unhappy","person","happy",1,2,"unhappy"
6,13513,"four_sliders",10,"Kathleen",0.13,"female","happiest","morphological","unhappiest","neg_positive","not happy","person","happy",1,3,"unhappy"
6,13513,"four_sliders",10,"Alexander",0,"male","happiest","morphological","unhappiest","antonym","unhappy","person","happy",1,4,"unhappy"
7,26803,"four_sliders",1,"Tom",0.19,"male","most interesting","morphological","most uninteresting","antonym","uninteresting","person","interesting",0,1,"uninteresting"
7,26803,"four_sliders",1,"Anthony",0.19,"male","most interesting","morphological","most uninteresting","neg_positive","not interesting","person","interesting",0,2,"uninteresting"
7,26803,"four_sliders",1,"Dylan",0.19,"male","most interesting","morphological","most uninteresting","neg_antonym","not uninteresting","person","interesting",0,3,"uninteresting"
7,26803,"four_sliders",1,"Maya",0.51,"female","most interesting","morphological","most uninteresting","positive","interesting","person","interesting",0,4,"uninteresting"
7,39319,"four_sliders",2,"Veronica",0.54,"female","most mature","morphological","most immature","neg_antonym","not immature","person","mature",0,1,"immature"
7,39319,"four_sliders",2,"Alison",0.32,"female","most mature","morphological","most immature","neg_positive","not mature","person","mature",0,2,"immature"
7,39319,"four_sliders",2,"Laura",0.64,"female","most mature","morphological","most immature","positive","mature","person","mature",0,3,"immature"
7,39319,"four_sliders",2,"Jennifer",0.19,"female","most mature","morphological","most immature","antonym","immature","person","mature",0,4,"immature"
7,18331,"four_sliders",3,"Kim",0.48,"female","most beautiful","lexical","most ugly","neg_antonym","not ugly","person","beautiful",0,1,"ugly"
7,18331,"four_sliders",3,"Sasha",0.23,"female","most beautiful","lexical","most ugly","antonym","ugly","person","beautiful",0,2,"ugly"
7,18331,"four_sliders",3,"Andrew",0.48,"male","most beautiful","lexical","most ugly","neg_positive","not beautiful","person","beautiful",0,3,"ugly"
7,18331,"four_sliders",3,"Angela",0.74,"female","most beautiful","lexical","most ugly","positive","beautiful","person","beautiful",0,4,"ugly"
7,14001,"four_sliders",4,"Emma",0.61,"female","most brave","lexical","most cowardly","positive","brave","person","brave",0,1,"cowardly"
7,14001,"four_sliders",4,"Mia",0.45,"female","most brave","lexical","most cowardly","neg_antonym","not cowardly","person","brave",0,2,"cowardly"
7,14001,"four_sliders",4,"Lucas",0.28,"male","most brave","lexical","most cowardly","neg_positive","not brave","person","brave",0,3,"cowardly"
7,14001,"four_sliders",4,"Charles",0.2,"male","most brave","lexical","most cowardly","antonym","cowardly","person","brave",0,4,"cowardly"
7,10861,"four_sliders",5,"Julia",0.22,"female","most loud","lexical","most quiet","antonym","quiet","person","loud",0,1,"quiet"
7,10861,"four_sliders",5,"William",0.78,"male","most loud","lexical","most quiet","positive","loud","person","loud",0,2,"quiet"
7,10861,"four_sliders",5,"Sophia",0.5,"female","most loud","lexical","most quiet","neg_positive","not loud","person","loud",0,3,"quiet"
7,10861,"four_sliders",5,"Stephen",0.5,"male","most loud","lexical","most quiet","neg_antonym","not quiet","person","loud",0,4,"quiet"
7,15015,"four_sliders",6,"Lee",0.69,"male","most proud","lexical","most humble","neg_antonym","not humble","person","proud",0,1,"humble"
7,15015,"four_sliders",6,"Jeremy",0.74,"male","most proud","lexical","most humble","positive","proud","person","proud",0,2,"humble"
7,15015,"four_sliders",6,"Monica",0.3,"female","most proud","lexical","most humble","neg_positive","not proud","person","proud",0,3,"humble"
7,15015,"four_sliders",6,"Eric",0.18,"male","most proud","lexical","most humble","antonym","humble","person","proud",0,4,"humble"
7,14985,"four_sliders",7,"Daniel",0.22,"male","most attractive","morphological","most unattractive","antonym","unattractive","person","attractive",0,1,"unattractive"
7,14985,"four_sliders",7,"Gabriel",0.65,"male","most attractive","morphological","most unattractive","positive","attractive","person","attractive",0,2,"unattractive"
7,14985,"four_sliders",7,"Alicia",0.44,"female","most attractive","morphological","most unattractive","neg_positive","not attractive","person","attractive",0,3,"unattractive"
7,14985,"four_sliders",7,"Michelle",0.44,"female","most attractive","morphological","most unattractive","neg_antonym","not unattractive","person","attractive",0,4,"unattractive"
7,20695,"four_sliders",8,"Claire",0.22,"female","most successful","morphological","most unsuccessful","neg_positive","not successful","person","successful",0,1,"unsuccessful"
7,20695,"four_sliders",8,"Greg",0.5,"male","most successful","morphological","most unsuccessful","neg_antonym","not unsuccessful","person","successful",0,2,"unsuccessful"
7,20695,"four_sliders",8,"David",0.75,"male","most successful","morphological","most unsuccessful","positive","successful","person","successful",0,3,"unsuccessful"
7,20695,"four_sliders",8,"Diana",0.22,"female","most successful","morphological","most unsuccessful","antonym","unsuccessful","person","successful",0,4,"unsuccessful"
7,11147,"four_sliders",9,"Samuel",0.22,"male","most friendly","morphological","most unfriendly","antonym","unfriendly","person","friendly",0,1,"unfriendly"
7,11147,"four_sliders",9,"Cameron",0.75,"male","most friendly","morphological","most unfriendly","positive","friendly","person","friendly",0,2,"unfriendly"
7,11147,"four_sliders",9,"Alexander",0.47,"male","most friendly","morphological","most unfriendly","neg_antonym","not unfriendly","person","friendly",0,3,"unfriendly"
7,11147,"four_sliders",9,"John",0.29,"male","most friendly","morphological","most unfriendly","neg_positive","not friendly","person","friendly",0,4,"unfriendly"
7,16712,"four_sliders",10,"Stephanie",0.51,"female","most hard-working","lexical","most lazy","neg_antonym","not lazy","person","hard-working",0,1,"lazy"
7,16712,"four_sliders",10,"Michael",0.43,"male","most hard-working","lexical","most lazy","neg_positive","not hard-working","person","hard-working",0,2,"lazy"
7,16712,"four_sliders",10,"Melinda",0.14,"female","most hard-working","lexical","most lazy","antonym","lazy","person","hard-working",0,3,"lazy"
7,16712,"four_sliders",10,"Kathleen",0.77,"female","most hard-working","lexical","most lazy","positive","hard-working","person","hard-working",0,4,"lazy"
8,44384,"four_sliders",1,"Alexander",0.48,"male","most successful","morphological","most unsuccessful","positive","successful","person","successful",0,1,"unsuccessful"
8,44384,"four_sliders",1,"Greg",0.21,"male","most successful","morphological","most unsuccessful","antonym","unsuccessful","person","successful",0,2,"unsuccessful"
8,44384,"four_sliders",1,"Michael",0.48,"male","most successful","morphological","most unsuccessful","neg_antonym","not unsuccessful","person","successful",0,3,"unsuccessful"
8,44384,"four_sliders",1,"Alison",0.83,"female","most successful","morphological","most unsuccessful","neg_positive","not successful","person","successful",0,4,"unsuccessful"
8,11066,"four_sliders",2,"Sophia",0.46,"female","most polite","morphological","most impolite","antonym","impolite","person","polite",0,1,"impolite"
8,11066,"four_sliders",2,"Lee",0.45,"male","most polite","morphological","most impolite","neg_antonym","not impolite","person","polite",0,2,"impolite"
8,11066,"four_sliders",2,"William",0.46,"male","most polite","morphological","most impolite","neg_positive","not polite","person","polite",0,3,"impolite"
8,11066,"four_sliders",2,"Anthony",0.74,"male","most polite","morphological","most impolite","positive","polite","person","polite",0,4,"impolite"
8,12612,"four_sliders",3,"Emma",0.19,"female","strongest","lexical","weakest","antonym","weak","person","strong",1,1,"weak"
8,12612,"four_sliders",3,"Maya",0.42,"female","strongest","lexical","weakest","neg_positive","not strong","person","strong",1,2,"weak"
8,12612,"four_sliders",3,"Monica",0.93,"female","strongest","lexical","weakest","positive","strong","person","strong",1,3,"weak"
8,12612,"four_sliders",3,"Jeremy",0.44,"male","strongest","lexical","weakest","neg_antonym","not weak","person","strong",1,4,"weak"
8,16648,"four_sliders",4,"John",1,"male","most intelligent","morphological","most unintelligent","positive","intelligent","person","intelligent",0,1,"unintelligent"
8,16648,"four_sliders",4,"Diana",0.41,"female","most intelligent","morphological","most unintelligent","neg_antonym","not unintelligent","person","intelligent",0,2,"unintelligent"
8,16648,"four_sliders",4,"Dylan",1,"male","most intelligent","morphological","most unintelligent","neg_positive","not intelligent","person","intelligent",0,3,"unintelligent"
8,16648,"four_sliders",4,"Jennifer",0.59,"female","most intelligent","morphological","most unintelligent","antonym","unintelligent","person","intelligent",0,4,"unintelligent"
8,41654,"four_sliders",5,"Kim",0,"female","most educated","morphological","most uneducated","neg_antonym","not uneducated","person","educated",0,1,"uneducated"
8,41654,"four_sliders",5,"Melinda",0.14,"female","most educated","morphological","most uneducated","neg_positive","not educated","person","educated",0,2,"uneducated"
8,41654,"four_sliders",5,"Andrew",0.04,"male","most educated","morphological","most uneducated","antonym","uneducated","person","educated",0,3,"uneducated"
8,41654,"four_sliders",5,"Charles",0.62,"male","most educated","morphological","most uneducated","positive","educated","person","educated",0,4,"uneducated"
8,32080,"four_sliders",6,"Angela",0.42,"female","fattest","lexical","skinniest","positive","fat","person","fat",1,1,"skinny"
8,32080,"four_sliders",6,"Lucas",0.45,"male","fattest","lexical","skinniest","neg_antonym","not skinny","person","fat",1,2,"skinny"
8,32080,"four_sliders",6,"Mia",0.04,"female","fattest","lexical","skinniest","neg_positive","not fat","person","fat",1,3,"skinny"
8,32080,"four_sliders",6,"Veronica",0.07,"female","fattest","lexical","skinniest","antonym","skinny","person","fat",1,4,"skinny"
8,20697,"four_sliders",7,"Tom",0.98,"male","most brave","lexical","most cowardly","antonym","cowardly","person","brave",0,1,"cowardly"
8,20697,"four_sliders",7,"Claire",1,"female","most brave","lexical","most cowardly","neg_antonym","not cowardly","person","brave",0,2,"cowardly"
8,20697,"four_sliders",7,"Samuel",0.06,"male","most brave","lexical","most cowardly","neg_positive","not brave","person","brave",0,3,"cowardly"
8,20697,"four_sliders",7,"Michelle",1,"female","most brave","lexical","most cowardly","positive","brave","person","brave",0,4,"cowardly"
8,16978,"four_sliders",8,"Kathleen",0.31,"female","most hard-working","lexical","most lazy","antonym","lazy","person","hard-working",0,1,"lazy"
8,16978,"four_sliders",8,"Sasha",0.52,"female","most hard-working","lexical","most lazy","neg_antonym","not lazy","person","hard-working",0,2,"lazy"
8,16978,"four_sliders",8,"Julia",0.48,"female","most hard-working","lexical","most lazy","neg_positive","not hard-working","person","hard-working",0,3,"lazy"
8,16978,"four_sliders",8,"Gabriel",0.26,"male","most hard-working","lexical","most lazy","positive","hard-working","person","hard-working",0,4,"lazy"
8,11218,"four_sliders",9,"Alicia",0.22,"female","most interesting","morphological","most uninteresting","antonym","uninteresting","person","interesting",0,1,"uninteresting"
8,11218,"four_sliders",9,"Daniel",0.42,"male","most interesting","morphological","most uninteresting","neg_antonym","not uninteresting","person","interesting",0,2,"uninteresting"
8,11218,"four_sliders",9,"Stephen",0.42,"male","most interesting","morphological","most uninteresting","positive","interesting","person","interesting",0,3,"uninteresting"
8,11218,"four_sliders",9,"Cameron",0.69,"male","most interesting","morphological","most uninteresting","neg_positive","not interesting","person","interesting",0,4,"uninteresting"
8,10278,"four_sliders",10,"Stephanie",0.78,"female","richest","lexical","poorest","positive","rich","person","rich",1,1,"poor"
8,10278,"four_sliders",10,"Eric",0.01,"male","richest","lexical","poorest","neg_positive","not rich","person","rich",1,2,"poor"
8,10278,"four_sliders",10,"David",0.15,"male","richest","lexical","poorest","antonym","poor","person","rich",1,3,"poor"
8,10278,"four_sliders",10,"Laura",0.79,"female","richest","lexical","poorest","neg_antonym","not poor","person","rich",1,4,"poor"
9,21892,"four_sliders",1,"Kim",0.46,"female","richest","lexical","poorest","positive","rich","person","rich",1,1,"poor"
9,21892,"four_sliders",1,"Dylan",0.22,"male","richest","lexical","poorest","antonym","poor","person","rich",1,2,"poor"
9,21892,"four_sliders",1,"Emma",0.35,"female","richest","lexical","poorest","neg_positive","not rich","person","rich",1,3,"poor"
9,21892,"four_sliders",1,"Daniel",0.35,"male","richest","lexical","poorest","neg_antonym","not poor","person","rich",1,4,"poor"
9,12504,"four_sliders",2,"Veronica",0.3,"female","fattest","lexical","skinniest","neg_positive","not fat","person","fat",1,1,"skinny"
9,12504,"four_sliders",2,"Jennifer",0.5,"female","fattest","lexical","skinniest","positive","fat","person","fat",1,2,"skinny"
9,12504,"four_sliders",2,"Julia",0.4,"female","fattest","lexical","skinniest","neg_antonym","not skinny","person","fat",1,3,"skinny"
9,12504,"four_sliders",2,"Mia",0.14,"female","fattest","lexical","skinniest","antonym","skinny","person","fat",1,4,"skinny"
9,12742,"four_sliders",3,"Alison",0.41,"female","most friendly","morphological","most unfriendly","positive","friendly","person","friendly",0,1,"unfriendly"
9,12742,"four_sliders",3,"Melinda",0.42,"female","most friendly","morphological","most unfriendly","neg_antonym","not unfriendly","person","friendly",0,2,"unfriendly"
9,12742,"four_sliders",3,"Michael",0.13,"male","most friendly","morphological","most unfriendly","antonym","unfriendly","person","friendly",0,3,"unfriendly"
9,12742,"four_sliders",3,"Kathleen",0.13,"female","most friendly","morphological","most unfriendly","neg_positive","not friendly","person","friendly",0,4,"unfriendly"
9,11906,"four_sliders",4,"Angela",0.38,"female","most honest","morphological","most dishonest","neg_positive","not honest","person","honest",0,1,"dishonest"
9,11906,"four_sliders",4,"Diana",0.53,"female","most honest","morphological","most dishonest","neg_antonym","not dishonest","person","honest",0,2,"dishonest"
9,11906,"four_sliders",4,"Stephanie",0.54,"female","most honest","morphological","most dishonest","positive","honest","person","honest",0,3,"dishonest"
9,11906,"four_sliders",4,"Charles",0.17,"male","most honest","morphological","most dishonest","antonym","dishonest","person","honest",0,4,"dishonest"
9,29597,"four_sliders",5,"Stephen",0.45,"male","most loud","lexical","most quiet","positive","loud","person","loud",0,1,"quiet"
9,29597,"four_sliders",5,"Tom",0.4,"male","most loud","lexical","most quiet","neg_antonym","not quiet","person","loud",0,2,"quiet"
9,29597,"four_sliders",5,"Andrew",0.1,"male","most loud","lexical","most quiet","antonym","quiet","person","loud",0,3,"quiet"
9,29597,"four_sliders",5,"Alexander",0.16,"male","most loud","lexical","most quiet","neg_positive","not loud","person","loud",0,4,"quiet"
9,7540,"four_sliders",6,"Claire",0.26,"female","tallest","lexical","shortest","neg_positive","not tall","person","tall",1,1,"short"
9,7540,"four_sliders",6,"Lucas",0.13,"male","tallest","lexical","shortest","antonym","short","person","tall",1,2,"short"
9,7540,"four_sliders",6,"Lee",0.3,"male","tallest","lexical","shortest","positive","tall","person","tall",1,3,"short"
9,7540,"four_sliders",6,"John",0.27,"male","tallest","lexical","shortest","neg_antonym","not short","person","tall",1,4,"short"
9,8397,"four_sliders",7,"Alicia",0.52,"female","most educated","morphological","most uneducated","neg_antonym","not uneducated","person","educated",0,1,"uneducated"
9,8397,"four_sliders",7,"David",0.23,"male","most educated","morphological","most uneducated","positive","educated","person","educated",0,2,"uneducated"
9,8397,"four_sliders",7,"William",0.5,"male","most educated","morphological","most uneducated","antonym","uneducated","person","educated",0,3,"uneducated"
9,8397,"four_sliders",7,"Maya",0.44,"female","most educated","morphological","most uneducated","neg_positive","not educated","person","educated",0,4,"uneducated"
9,7137,"four_sliders",8,"Monica",0.26,"female","most hard-working","lexical","most lazy","antonym","lazy","person","hard-working",0,1,"lazy"
9,7137,"four_sliders",8,"Eric",0.45,"male","most hard-working","lexical","most lazy","positive","hard-working","person","hard-working",0,2,"lazy"
9,7137,"four_sliders",8,"Gabriel",0.4,"male","most hard-working","lexical","most lazy","neg_antonym","not lazy","person","hard-working",0,3,"lazy"
9,7137,"four_sliders",8,"Sasha",0.27,"female","most hard-working","lexical","most lazy","neg_positive","not hard-working","person","hard-working",0,4,"lazy"
9,8667,"four_sliders",9,"Michelle",0.22,"female","happiest","morphological","unhappiest","antonym","unhappy","person","happy",1,1,"unhappy"
9,8667,"four_sliders",9,"Laura",0.22,"female","happiest","morphological","unhappiest","neg_positive","not happy","person","happy",1,2,"unhappy"
9,8667,"four_sliders",9,"Samuel",0.41,"male","happiest","morphological","unhappiest","positive","happy","person","happy",1,3,"unhappy"
9,8667,"four_sliders",9,"Greg",0.41,"male","happiest","morphological","unhappiest","neg_antonym","not unhappy","person","happy",1,4,"unhappy"
9,9938,"four_sliders",10,"Jeremy",0.14,"male","most successful","morphological","most unsuccessful","positive","successful","person","successful",0,1,"unsuccessful"
9,9938,"four_sliders",10,"Sophia",0.54,"female","most successful","morphological","most unsuccessful","neg_positive","not successful","person","successful",0,2,"unsuccessful"
9,9938,"four_sliders",10,"Cameron",0.24,"male","most successful","morphological","most unsuccessful","neg_antonym","not unsuccessful","person","successful",0,3,"unsuccessful"
9,9938,"four_sliders",10,"Anthony",0.56,"male","most successful","morphological","most unsuccessful","antonym","unsuccessful","person","successful",0,4,"unsuccessful"
10,41900,"four_sliders",1,"Michelle",0.9,"female","most proud","lexical","most humble","positive","proud","person","proud",0,1,"humble"
10,41900,"four_sliders",1,"Charles",0.13,"male","most proud","lexical","most humble","neg_positive","not proud","person","proud",0,2,"humble"
10,41900,"four_sliders",1,"Greg",0.1,"male","most proud","lexical","most humble","antonym","humble","person","proud",0,3,"humble"
10,41900,"four_sliders",1,"William",1,"male","most proud","lexical","most humble","neg_antonym","not humble","person","proud",0,4,"humble"
10,8592,"four_sliders",2,"Andrew",0.95,"male","tallest","lexical","shortest","positive","tall","person","tall",1,1,"short"
10,8592,"four_sliders",2,"Eric",0.05,"male","tallest","lexical","shortest","neg_positive","not tall","person","tall",1,2,"short"
10,8592,"four_sliders",2,"Jennifer",0.04,"female","tallest","lexical","shortest","antonym","short","person","tall",1,3,"short"
10,8592,"four_sliders",2,"Anthony",0.96,"male","tallest","lexical","shortest","neg_antonym","not short","person","tall",1,4,"short"
10,11694,"four_sliders",3,"Jeremy",0.1,"male","most interesting","morphological","most uninteresting","neg_antonym","not uninteresting","person","interesting",0,1,"uninteresting"
10,11694,"four_sliders",3,"David",0.11,"male","most interesting","morphological","most uninteresting","antonym","uninteresting","person","interesting",0,2,"uninteresting"
10,11694,"four_sliders",3,"Tom",0.08,"male","most interesting","morphological","most uninteresting","neg_positive","not interesting","person","interesting",0,3,"uninteresting"
10,11694,"four_sliders",3,"Maya",0.92,"female","most interesting","morphological","most uninteresting","positive","interesting","person","interesting",0,4,"uninteresting"
10,5551,"four_sliders",4,"Dylan",0.88,"male","most educated","morphological","most uneducated","positive","educated","person","educated",0,1,"uneducated"
10,5551,"four_sliders",4,"Lee",0.07,"male","most educated","morphological","most uneducated","neg_positive","not educated","person","educated",0,2,"uneducated"
10,5551,"four_sliders",4,"Melinda",0.06,"female","most educated","morphological","most uneducated","antonym","uneducated","person","educated",0,3,"uneducated"
10,5551,"four_sliders",4,"Monica",0.09,"female","most educated","morphological","most uneducated","neg_antonym","not uneducated","person","educated",0,4,"uneducated"
10,5911,"four_sliders",5,"Veronica",0.14,"female","most beautiful","lexical","most ugly","neg_positive","not beautiful","person","beautiful",0,1,"ugly"
10,5911,"four_sliders",5,"Angela",0.12,"female","most beautiful","lexical","most ugly","antonym","ugly","person","beautiful",0,2,"ugly"
10,5911,"four_sliders",5,"Sophia",0.13,"female","most beautiful","lexical","most ugly","neg_antonym","not ugly","person","beautiful",0,3,"ugly"
10,5911,"four_sliders",5,"Cameron",0.89,"male","most beautiful","lexical","most ugly","positive","beautiful","person","beautiful",0,4,"ugly"
10,6039,"four_sliders",6,"Alicia",0.93,"female","most honest","morphological","most dishonest","positive","honest","person","honest",0,1,"dishonest"
10,6039,"four_sliders",6,"Sasha",0.08,"female","most honest","morphological","most dishonest","neg_antonym","not dishonest","person","honest",0,2,"dishonest"
10,6039,"four_sliders",6,"Claire",0.07,"female","most honest","morphological","most dishonest","neg_positive","not honest","person","honest",0,3,"dishonest"
10,6039,"four_sliders",6,"Kathleen",0.08,"female","most honest","morphological","most dishonest","antonym","dishonest","person","honest",0,4,"dishonest"
10,7095,"four_sliders",7,"Stephen",0.11,"male","most polite","morphological","most impolite","neg_positive","not polite","person","polite",0,1,"impolite"
10,7095,"four_sliders",7,"Daniel",0.91,"male","most polite","morphological","most impolite","antonym","impolite","person","polite",0,2,"impolite"
10,7095,"four_sliders",7,"Lucas",0.91,"male","most polite","morphological","most impolite","positive","polite","person","polite",0,3,"impolite"
10,7095,"four_sliders",7,"Gabriel",0.08,"male","most polite","morphological","most impolite","neg_antonym","not impolite","person","polite",0,4,"impolite"
10,6407,"four_sliders",8,"Alexander",0.9,"male","happiest","morphological","unhappiest","positive","happy","person","happy",1,1,"unhappy"
10,6407,"four_sliders",8,"Emma",0.09,"female","happiest","morphological","unhappiest","neg_antonym","not unhappy","person","happy",1,2,"unhappy"
10,6407,"four_sliders",8,"John",0.09,"male","happiest","morphological","unhappiest","neg_positive","not happy","person","happy",1,3,"unhappy"
10,6407,"four_sliders",8,"Stephanie",0.09,"female","happiest","morphological","unhappiest","antonym","unhappy","person","happy",1,4,"unhappy"
10,5335,"four_sliders",9,"Alison",0.07,"female","most hard-working","lexical","most lazy","neg_positive","not hard-working","person","hard-working",0,1,"lazy"
10,5335,"four_sliders",9,"Mia",0.1,"female","most hard-working","lexical","most lazy","antonym","lazy","person","hard-working",0,2,"lazy"
10,5335,"four_sliders",9,"Samuel",0.1,"male","most hard-working","lexical","most lazy","neg_antonym","not lazy","person","hard-working",0,3,"lazy"
10,5335,"four_sliders",9,"Michael",0.91,"male","most hard-working","lexical","most lazy","positive","hard-working","person","hard-working",0,4,"lazy"
10,7263,"four_sliders",10,"Julia",0.94,"female","most loud","lexical","most quiet","positive","loud","person","loud",0,1,"quiet"
10,7263,"four_sliders",10,"Diana",0.92,"female","most loud","lexical","most quiet","neg_antonym","not quiet","person","loud",0,2,"quiet"
10,7263,"four_sliders",10,"Laura",0.05,"female","most loud","lexical","most quiet","antonym","quiet","person","loud",0,3,"quiet"
10,7263,"four_sliders",10,"Kim",0.03,"female","most loud","lexical","most quiet","neg_positive","not loud","person","loud",0,4,"quiet"
11,34938,"four_sliders",1,"Lucas",0.27,"male","tallest","lexical","shortest","antonym","short","person","tall",1,1,"short"
11,34938,"four_sliders",1,"Jennifer",0.55,"female","tallest","lexical","shortest","neg_antonym","not short","person","tall",1,2,"short"
11,34938,"four_sliders",1,"Angela",0.8,"female","tallest","lexical","shortest","positive","tall","person","tall",1,3,"short"
11,34938,"four_sliders",1,"Sophia",0.61,"female","tallest","lexical","shortest","neg_positive","not tall","person","tall",1,4,"short"
11,22853,"four_sliders",2,"Eric",0.78,"male","fattest","lexical","skinniest","positive","fat","person","fat",1,1,"skinny"
11,22853,"four_sliders",2,"Kathleen",0.19,"female","fattest","lexical","skinniest","antonym","skinny","person","fat",1,2,"skinny"
11,22853,"four_sliders",2,"Dylan",0.57,"male","fattest","lexical","skinniest","neg_antonym","not skinny","person","fat",1,3,"skinny"
11,22853,"four_sliders",2,"Sasha",0.57,"female","fattest","lexical","skinniest","neg_positive","not fat","person","fat",1,4,"skinny"
11,20126,"four_sliders",3,"Kim",0.21,"female","most honest","morphological","most dishonest","neg_positive","not honest","person","honest",0,1,"dishonest"
11,20126,"four_sliders",3,"Gabriel",0.15,"male","most honest","morphological","most dishonest","antonym","dishonest","person","honest",0,2,"dishonest"
11,20126,"four_sliders",3,"Michelle",0.88,"female","most honest","morphological","most dishonest","positive","honest","person","honest",0,3,"dishonest"
11,20126,"four_sliders",3,"Maya",0.76,"female","most honest","morphological","most dishonest","neg_antonym","not dishonest","person","honest",0,4,"dishonest"
11,14592,"four_sliders",4,"Stephanie",0.21,"female","most hard-working","lexical","most lazy","antonym","lazy","person","hard-working",0,1,"lazy"
11,14592,"four_sliders",4,"Michael",0.71,"male","most hard-working","lexical","most lazy","neg_antonym","not lazy","person","hard-working",0,2,"lazy"
11,14592,"four_sliders",4,"Charles",0.88,"male","most hard-working","lexical","most lazy","positive","hard-working","person","hard-working",0,3,"lazy"
11,14592,"four_sliders",4,"David",0.27,"male","most hard-working","lexical","most lazy","neg_positive","not hard-working","person","hard-working",0,4,"lazy"
11,15981,"four_sliders",5,"Veronica",0.22,"female","most friendly","morphological","most unfriendly","neg_positive","not friendly","person","friendly",0,1,"unfriendly"
11,15981,"four_sliders",5,"John",0.7,"male","most friendly","morphological","most unfriendly","neg_antonym","not unfriendly","person","friendly",0,2,"unfriendly"
11,15981,"four_sliders",5,"Julia",0.15,"female","most friendly","morphological","most unfriendly","antonym","unfriendly","person","friendly",0,3,"unfriendly"
11,15981,"four_sliders",5,"Diana",0.82,"female","most friendly","morphological","most unfriendly","positive","friendly","person","friendly",0,4,"unfriendly"
11,16655,"four_sliders",6,"Tom",0.65,"male","most intelligent","morphological","most unintelligent","neg_antonym","not unintelligent","person","intelligent",0,1,"unintelligent"
11,16655,"four_sliders",6,"Melinda",0.33,"female","most intelligent","morphological","most unintelligent","neg_positive","not intelligent","person","intelligent",0,2,"unintelligent"
11,16655,"four_sliders",6,"Monica",0.86,"female","most intelligent","morphological","most unintelligent","positive","intelligent","person","intelligent",0,3,"unintelligent"
11,16655,"four_sliders",6,"Emma",0.26,"female","most intelligent","morphological","most unintelligent","antonym","unintelligent","person","intelligent",0,4,"unintelligent"
11,14215,"four_sliders",7,"Alicia",0.22,"female","most wise","lexical","most foolish","neg_positive","not wise","person","wise",0,1,"foolish"
11,14215,"four_sliders",7,"Cameron",0.84,"male","most wise","lexical","most foolish","positive","wise","person","wise",0,2,"foolish"
11,14215,"four_sliders",7,"Laura",0.71,"female","most wise","lexical","most foolish","neg_antonym","not foolish","person","wise",0,3,"foolish"
11,14215,"four_sliders",7,"Greg",0.12,"male","most wise","lexical","most foolish","antonym","foolish","person","wise",0,4,"foolish"
11,16335,"four_sliders",8,"Claire",0.67,"female","most educated","morphological","most uneducated","neg_antonym","not uneducated","person","educated",0,1,"uneducated"
11,16335,"four_sliders",8,"Stephen",0.29,"male","most educated","morphological","most uneducated","neg_positive","not educated","person","educated",0,2,"uneducated"
11,16335,"four_sliders",8,"Jeremy",0.82,"male","most educated","morphological","most uneducated","positive","educated","person","educated",0,3,"uneducated"
11,16335,"four_sliders",8,"Anthony",0.14,"male","most educated","morphological","most uneducated","antonym","uneducated","person","educated",0,4,"uneducated"
11,12455,"four_sliders",9,"Alison",0.71,"female","most interesting","morphological","most uninteresting","positive","interesting","person","interesting",0,1,"uninteresting"
11,12455,"four_sliders",9,"Lee",0.57,"male","most interesting","morphological","most uninteresting","neg_antonym","not uninteresting","person","interesting",0,2,"uninteresting"
11,12455,"four_sliders",9,"Samuel",0.29,"male","most interesting","morphological","most uninteresting","antonym","uninteresting","person","interesting",0,3,"uninteresting"
11,12455,"four_sliders",9,"Alexander",0.28,"male","most interesting","morphological","most uninteresting","neg_positive","not interesting","person","interesting",0,4,"uninteresting"
11,21119,"four_sliders",10,"Daniel",0.55,"male","most beautiful","lexical","most ugly","neg_antonym","not ugly","person","beautiful",0,1,"ugly"
11,21119,"four_sliders",10,"William",0.27,"male","most beautiful","lexical","most ugly","antonym","ugly","person","beautiful",0,2,"ugly"
11,21119,"four_sliders",10,"Andrew",0.76,"male","most beautiful","lexical","most ugly","positive","beautiful","person","beautiful",0,3,"ugly"
11,21119,"four_sliders",10,"Mia",0.6,"female","most beautiful","lexical","most ugly","neg_positive","not beautiful","person","beautiful",0,4,"ugly"
12,42797,"four_sliders",1,"Sasha",0.62,"female","most polite","morphological","most impolite","positive","polite","person","polite",0,1,"impolite"
12,42797,"four_sliders",1,"Veronica",0.34,"female","most polite","morphological","most impolite","neg_positive","not polite","person","polite",0,2,"impolite"
12,42797,"four_sliders",1,"Jennifer",0.56,"female","most polite","morphological","most impolite","neg_antonym","not impolite","person","polite",0,3,"impolite"
12,42797,"four_sliders",1,"Alicia",0.28,"female","most polite","morphological","most impolite","antonym","impolite","person","polite",0,4,"impolite"
12,26282,"four_sliders",2,"Lee",0.61,"male","most interesting","morphological","most uninteresting","neg_antonym","not uninteresting","person","interesting",0,1,"uninteresting"
12,26282,"four_sliders",2,"Stephen",0.35,"male","most interesting","morphological","most uninteresting","neg_positive","not interesting","person","interesting",0,2,"uninteresting"
12,26282,"four_sliders",2,"Cameron",0.68,"male","most interesting","morphological","most uninteresting","positive","interesting","person","interesting",0,3,"uninteresting"
12,26282,"four_sliders",2,"Tom",0.26,"male","most interesting","morphological","most uninteresting","antonym","uninteresting","person","interesting",0,4,"uninteresting"
12,11380,"four_sliders",3,"Alison",0.72,"female","most hard-working","lexical","most lazy","neg_antonym","not lazy","person","hard-working",0,1,"lazy"
12,11380,"four_sliders",3,"Greg",0.24,"male","most hard-working","lexical","most lazy","antonym","lazy","person","hard-working",0,2,"lazy"
12,11380,"four_sliders",3,"John",0.8,"male","most hard-working","lexical","most lazy","positive","hard-working","person","hard-working",0,3,"lazy"
12,11380,"four_sliders",3,"Monica",0.39,"female","most hard-working","lexical","most lazy","neg_positive","not hard-working","person","hard-working",0,4,"lazy"
12,11882,"four_sliders",4,"Sophia",0.34,"female","most educated","morphological","most uneducated","neg_positive","not educated","person","educated",0,1,"uneducated"
12,11882,"four_sliders",4,"Dylan",0.76,"male","most educated","morphological","most uneducated","positive","educated","person","educated",0,2,"uneducated"
12,11882,"four_sliders",4,"Anthony",0.62,"male","most educated","morphological","most uneducated","neg_antonym","not uneducated","person","educated",0,3,"uneducated"
12,11882,"four_sliders",4,"Daniel",0.27,"male","most educated","morphological","most uneducated","antonym","uneducated","person","educated",0,4,"uneducated"
12,13512,"four_sliders",5,"Julia",0.68,"female","strongest","lexical","weakest","neg_antonym","not weak","person","strong",1,1,"weak"
12,13512,"four_sliders",5,"Claire",0.18,"female","strongest","lexical","weakest","antonym","weak","person","strong",1,2,"weak"
12,13512,"four_sliders",5,"Alexander",0.79,"male","strongest","lexical","weakest","positive","strong","person","strong",1,3,"weak"
12,13512,"four_sliders",5,"Lucas",0.32,"male","strongest","lexical","weakest","neg_positive","not strong","person","strong",1,4,"weak"
12,9589,"four_sliders",6,"Eric",0.67,"male","most intelligent","morphological","most unintelligent","neg_antonym","not unintelligent","person","intelligent",0,1,"unintelligent"
12,9589,"four_sliders",6,"Melinda",0.77,"female","most intelligent","morphological","most unintelligent","positive","intelligent","person","intelligent",0,2,"unintelligent"
12,9589,"four_sliders",6,"Michelle",0.27,"female","most intelligent","morphological","most unintelligent","antonym","unintelligent","person","intelligent",0,3,"unintelligent"
12,9589,"four_sliders",6,"Maya",0.41,"female","most intelligent","morphological","most unintelligent","neg_positive","not intelligent","person","intelligent",0,4,"unintelligent"
12,12340,"four_sliders",7,"Samuel",0.3,"male","most attractive","morphological","most unattractive","neg_positive","not attractive","person","attractive",0,1,"unattractive"
12,12340,"four_sliders",7,"Stephanie",0.61,"female","most attractive","morphological","most unattractive","neg_antonym","not unattractive","person","attractive",0,2,"unattractive"
12,12340,"four_sliders",7,"Laura",0.21,"female","most attractive","morphological","most unattractive","antonym","unattractive","person","attractive",0,3,"unattractive"
12,12340,"four_sliders",7,"Kathleen",0.75,"female","most attractive","morphological","most unattractive","positive","attractive","person","attractive",0,4,"unattractive"
12,12247,"four_sliders",8,"Mia",0.78,"female","tallest","lexical","shortest","positive","tall","person","tall",1,1,"short"
12,12247,"four_sliders",8,"Michael",0.59,"male","tallest","lexical","shortest","neg_antonym","not short","person","tall",1,2,"short"
12,12247,"four_sliders",8,"William",0.23,"male","tallest","lexical","shortest","antonym","short","person","tall",1,3,"short"
12,12247,"four_sliders",8,"David",0.52,"male","tallest","lexical","shortest","neg_positive","not tall","person","tall",1,4,"short"
12,11213,"four_sliders",9,"Diana",0.65,"female","most wise","lexical","most foolish","neg_antonym","not foolish","person","wise",0,1,"foolish"
12,11213,"four_sliders",9,"Gabriel",0.19,"male","most wise","lexical","most foolish","antonym","foolish","person","wise",0,2,"foolish"
12,11213,"four_sliders",9,"Kim",0.83,"female","most wise","lexical","most foolish","positive","wise","person","wise",0,3,"foolish"
12,11213,"four_sliders",9,"Emma",0.36,"female","most wise","lexical","most foolish","neg_positive","not wise","person","wise",0,4,"foolish"
12,15823,"four_sliders",10,"Angela",0.38,"female","most proud","lexical","most humble","neg_positive","not proud","person","proud",0,1,"humble"
12,15823,"four_sliders",10,"Andrew",0.77,"male","most proud","lexical","most humble","positive","proud","person","proud",0,2,"humble"
12,15823,"four_sliders",10,"Charles",0.66,"male","most proud","lexical","most humble","neg_antonym","not humble","person","proud",0,3,"humble"
12,15823,"four_sliders",10,"Jeremy",0.25,"male","most proud","lexical","most humble","antonym","humble","person","proud",0,4,"humble"
13,22099,"four_sliders",1,"Lee",0.28,"male","most attractive","morphological","most unattractive","neg_positive","not attractive","person","attractive",0,1,"unattractive"
13,22099,"four_sliders",1,"Greg",0.79,"male","most attractive","morphological","most unattractive","positive","attractive","person","attractive",0,2,"unattractive"
13,22099,"four_sliders",1,"Gabriel",0.14,"male","most attractive","morphological","most unattractive","antonym","unattractive","person","attractive",0,3,"unattractive"
13,22099,"four_sliders",1,"Jeremy",0.72,"male","most attractive","morphological","most unattractive","neg_antonym","not unattractive","person","attractive",0,4,"unattractive"
13,23869,"four_sliders",2,"Cameron",0.6,"male","richest","lexical","poorest","neg_antonym","not poor","person","rich",1,1,"poor"
13,23869,"four_sliders",2,"Michelle",0.37,"female","richest","lexical","poorest","neg_positive","not rich","person","rich",1,2,"poor"
13,23869,"four_sliders",2,"Michael",0.79,"male","richest","lexical","poorest","positive","rich","person","rich",1,3,"poor"
13,23869,"four_sliders",2,"Kathleen",0.1,"female","richest","lexical","poorest","antonym","poor","person","rich",1,4,"poor"
13,11391,"four_sliders",3,"Dylan",0.81,"male","most educated","morphological","most uneducated","positive","educated","person","educated",0,1,"uneducated"
13,11391,"four_sliders",3,"Claire",0.03,"female","most educated","morphological","most uneducated","neg_positive","not educated","person","educated",0,2,"uneducated"
13,11391,"four_sliders",3,"Alison",0.03,"female","most educated","morphological","most uneducated","antonym","uneducated","person","educated",0,3,"uneducated"
13,11391,"four_sliders",3,"Emma",0.74,"female","most educated","morphological","most uneducated","neg_antonym","not uneducated","person","educated",0,4,"uneducated"
13,78023,"four_sliders",4,"Lucas",0.88,"male","most mature","morphological","most immature","positive","mature","person","mature",0,1,"immature"
13,78023,"four_sliders",4,"Tom",0.68,"male","most mature","morphological","most immature","neg_antonym","not immature","person","mature",0,2,"immature"
13,78023,"four_sliders",4,"Jennifer",0.06,"female","most mature","morphological","most immature","antonym","immature","person","mature",0,3,"immature"
13,78023,"four_sliders",4,"Julia",0.5,"female","most mature","morphological","most immature","neg_positive","not mature","person","mature",0,4,"immature"
13,142047,"four_sliders",5,"Anthony",0.98,"male","most proud","lexical","most humble","neg_antonym","not humble","person","proud",0,1,"humble"
13,142047,"four_sliders",5,"Andrew",0.07,"male","most proud","lexical","most humble","neg_positive","not proud","person","proud",0,2,"humble"
13,142047,"four_sliders",5,"Sasha",0.07,"female","most proud","lexical","most humble","antonym","humble","person","proud",0,3,"humble"
13,142047,"four_sliders",5,"Alicia",0,"female","most proud","lexical","most humble","positive","proud","person","proud",0,4,"humble"
13,13087,"four_sliders",6,"Angela",0.83,"female","most successful","morphological","most unsuccessful","neg_antonym","not unsuccessful","person","successful",0,1,"unsuccessful"
13,13087,"four_sliders",6,"Eric",0.05,"male","most successful","morphological","most unsuccessful","neg_positive","not successful","person","successful",0,2,"unsuccessful"
13,13087,"four_sliders",6,"Daniel",0.05,"male","most successful","morphological","most unsuccessful","antonym","unsuccessful","person","successful",0,3,"unsuccessful"
13,13087,"four_sliders",6,"William",0.83,"male","most successful","morphological","most unsuccessful","positive","successful","person","successful",0,4,"unsuccessful"
13,8663,"four_sliders",7,"Stephanie",0.87,"female","tallest","lexical","shortest","positive","tall","person","tall",1,1,"short"
13,8663,"four_sliders",7,"Stephen",0.56,"male","tallest","lexical","shortest","neg_antonym","not short","person","tall",1,2,"short"
13,8663,"four_sliders",7,"Maya",0.08,"female","tallest","lexical","shortest","antonym","short","person","tall",1,3,"short"
13,8663,"four_sliders",7,"Veronica",0.29,"female","tallest","lexical","shortest","neg_positive","not tall","person","tall",1,4,"short"
13,13400,"four_sliders",8,"Diana",0.98,"female","most wise","lexical","most foolish","positive","wise","person","wise",0,1,"foolish"
13,13400,"four_sliders",8,"John",0.78,"male","most wise","lexical","most foolish","neg_antonym","not foolish","person","wise",0,2,"foolish"
13,13400,"four_sliders",8,"Melinda",0.11,"female","most wise","lexical","most foolish","neg_positive","not wise","person","wise",0,3,"foolish"
13,13400,"four_sliders",8,"Kim",0,"female","most wise","lexical","most foolish","antonym","foolish","person","wise",0,4,"foolish"
13,17710,"four_sliders",9,"Monica",0.05,"female","happiest","morphological","unhappiest","neg_antonym","not unhappy","person","happy",1,1,"unhappy"
13,17710,"four_sliders",9,"Laura",0.91,"female","happiest","morphological","unhappiest","positive","happy","person","happy",1,2,"unhappy"
13,17710,"four_sliders",9,"Alexander",0.06,"male","happiest","morphological","unhappiest","antonym","unhappy","person","happy",1,3,"unhappy"
13,17710,"four_sliders",9,"Samuel",0.06,"male","happiest","morphological","unhappiest","neg_positive","not happy","person","happy",1,4,"unhappy"
13,10400,"four_sliders",10,"Charles",0.09,"male","most hard-working","lexical","most lazy","neg_positive","not hard-working","person","hard-working",0,1,"lazy"
13,10400,"four_sliders",10,"Mia",1,"female","most hard-working","lexical","most lazy","neg_antonym","not lazy","person","hard-working",0,2,"lazy"
13,10400,"four_sliders",10,"David",0,"male","most hard-working","lexical","most lazy","antonym","lazy","person","hard-working",0,3,"lazy"
13,10400,"four_sliders",10,"Sophia",1,"female","most hard-working","lexical","most lazy","positive","hard-working","person","hard-working",0,4,"lazy"
14,29029,"four_sliders",1,"Jennifer",0.71,"female","most proud","lexical","most humble","positive","proud","person","proud",0,1,"humble"
14,29029,"four_sliders",1,"Michelle",0.76,"female","most proud","lexical","most humble","neg_antonym","not humble","person","proud",0,2,"humble"
14,29029,"four_sliders",1,"John",0.49,"male","most proud","lexical","most humble","antonym","humble","person","proud",0,3,"humble"
14,29029,"four_sliders",1,"Angela",0.26,"female","most proud","lexical","most humble","neg_positive","not proud","person","proud",0,4,"humble"
14,12014,"four_sliders",2,"Kathleen",0.3,"female","most friendly","morphological","most unfriendly","neg_positive","not friendly","person","friendly",0,1,"unfriendly"
14,12014,"four_sliders",2,"Cameron",0.57,"male","most friendly","morphological","most unfriendly","positive","friendly","person","friendly",0,2,"unfriendly"
14,12014,"four_sliders",2,"Melinda",0.28,"female","most friendly","morphological","most unfriendly","antonym","unfriendly","person","friendly",0,3,"unfriendly"
14,12014,"four_sliders",2,"Stephen",0.64,"male","most friendly","morphological","most unfriendly","neg_antonym","not unfriendly","person","friendly",0,4,"unfriendly"
14,12065,"four_sliders",3,"Greg",0.27,"male","strongest","lexical","weakest","neg_positive","not strong","person","strong",1,1,"weak"
14,12065,"four_sliders",3,"Charles",0.38,"male","strongest","lexical","weakest","antonym","weak","person","strong",1,2,"weak"
14,12065,"four_sliders",3,"Dylan",0.79,"male","strongest","lexical","weakest","neg_antonym","not weak","person","strong",1,3,"weak"
14,12065,"four_sliders",3,"Lucas",0.79,"male","strongest","lexical","weakest","positive","strong","person","strong",1,4,"weak"
14,13310,"four_sliders",4,"Sophia",0.36,"female","most mature","morphological","most immature","antonym","immature","person","mature",0,1,"immature"
14,13310,"four_sliders",4,"David",0.71,"male","most mature","morphological","most immature","neg_antonym","not immature","person","mature",0,2,"immature"
14,13310,"four_sliders",4,"Veronica",0.29,"female","most mature","morphological","most immature","neg_positive","not mature","person","mature",0,3,"immature"
14,13310,"four_sliders",4,"Alicia",0.7,"female","most mature","morphological","most immature","positive","mature","person","mature",0,4,"immature"
14,11069,"four_sliders",5,"Emma",0.69,"female","most brave","lexical","most cowardly","neg_antonym","not cowardly","person","brave",0,1,"cowardly"
14,11069,"four_sliders",5,"Monica",0.41,"female","most brave","lexical","most cowardly","antonym","cowardly","person","brave",0,2,"cowardly"
14,11069,"four_sliders",5,"Claire",0.7,"female","most brave","lexical","most cowardly","positive","brave","person","brave",0,3,"cowardly"
14,11069,"four_sliders",5,"Tom",0.26,"male","most brave","lexical","most cowardly","neg_positive","not brave","person","brave",0,4,"cowardly"
14,10485,"four_sliders",6,"Laura",0.32,"female","most intelligent","morphological","most unintelligent","neg_positive","not intelligent","person","intelligent",0,1,"unintelligent"
14,10485,"four_sliders",6,"Andrew",0.71,"male","most intelligent","morphological","most unintelligent","neg_antonym","not unintelligent","person","intelligent",0,2,"unintelligent"
14,10485,"four_sliders",6,"Eric",0.62,"male","most intelligent","morphological","most unintelligent","positive","intelligent","person","intelligent",0,3,"unintelligent"
14,10485,"four_sliders",6,"Lee",0.38,"male","most intelligent","morphological","most unintelligent","antonym","unintelligent","person","intelligent",0,4,"unintelligent"
14,12155,"four_sliders",7,"Daniel",0.33,"male","happiest","morphological","unhappiest","neg_positive","not happy","person","happy",1,1,"unhappy"
14,12155,"four_sliders",7,"Gabriel",0.33,"male","happiest","morphological","unhappiest","antonym","unhappy","person","happy",1,2,"unhappy"
14,12155,"four_sliders",7,"Kim",0.55,"female","happiest","morphological","unhappiest","positive","happy","person","happy",1,3,"unhappy"
14,12155,"four_sliders",7,"Samuel",0.71,"male","happiest","morphological","unhappiest","neg_antonym","not unhappy","person","happy",1,4,"unhappy"
14,15829,"four_sliders",8,"Jeremy",0.68,"male","richest","lexical","poorest","neg_antonym","not poor","person","rich",1,1,"poor"
14,15829,"four_sliders",8,"Julia",0.77,"female","richest","lexical","poorest","positive","rich","person","rich",1,2,"poor"
14,15829,"four_sliders",8,"Sasha",0.24,"female","richest","lexical","poorest","neg_positive","not rich","person","rich",1,3,"poor"
14,15829,"four_sliders",8,"Mia",0.25,"female","richest","lexical","poorest","antonym","poor","person","rich",1,4,"poor"
14,11581,"four_sliders",9,"Alison",0.28,"female","most beautiful","lexical","most ugly","neg_positive","not beautiful","person","beautiful",0,1,"ugly"
14,11581,"four_sliders",9,"William",0.68,"male","most beautiful","lexical","most ugly","positive","beautiful","person","beautiful",0,2,"ugly"
14,11581,"four_sliders",9,"Maya",0.52,"female","most beautiful","lexical","most ugly","neg_antonym","not ugly","person","beautiful",0,3,"ugly"
14,11581,"four_sliders",9,"Stephanie",0.22,"female","most beautiful","lexical","most ugly","antonym","ugly","person","beautiful",0,4,"ugly"
14,13958,"four_sliders",10,"Diana",0.29,"female","most successful","morphological","most unsuccessful","neg_positive","not successful","person","successful",0,1,"unsuccessful"
14,13958,"four_sliders",10,"Michael",0.61,"male","most successful","morphological","most unsuccessful","positive","successful","person","successful",0,2,"unsuccessful"
14,13958,"four_sliders",10,"Alexander",0.57,"male","most successful","morphological","most unsuccessful","neg_antonym","not unsuccessful","person","successful",0,3,"unsuccessful"
14,13958,"four_sliders",10,"Anthony",0.26,"male","most successful","morphological","most unsuccessful","antonym","unsuccessful","person","successful",0,4,"unsuccessful"
15,28024,"four_sliders",1,"Lee",0.8,"male","happiest","morphological","unhappiest","positive","happy","person","happy",1,1,"unhappy"
15,28024,"four_sliders",1,"Gabriel",0.19,"male","happiest","morphological","unhappiest","antonym","unhappy","person","happy",1,2,"unhappy"
15,28024,"four_sliders",1,"Jennifer",0.32,"female","happiest","morphological","unhappiest","neg_positive","not happy","person","happy",1,3,"unhappy"
15,28024,"four_sliders",1,"Samuel",0.49,"male","happiest","morphological","unhappiest","neg_antonym","not unhappy","person","happy",1,4,"unhappy"
15,13227,"four_sliders",2,"Sophia",0.84,"female","strongest","lexical","weakest","positive","strong","person","strong",1,1,"weak"
15,13227,"four_sliders",2,"Tom",0.54,"male","strongest","lexical","weakest","neg_antonym","not weak","person","strong",1,2,"weak"
15,13227,"four_sliders",2,"Cameron",0.49,"male","strongest","lexical","weakest","neg_positive","not strong","person","strong",1,3,"weak"
15,13227,"four_sliders",2,"Alicia",0.12,"female","strongest","lexical","weakest","antonym","weak","person","strong",1,4,"weak"
15,10628,"four_sliders",3,"Angela",0.8,"female","most successful","morphological","most unsuccessful","positive","successful","person","successful",0,1,"unsuccessful"
15,10628,"four_sliders",3,"Dylan",0.58,"male","most successful","morphological","most unsuccessful","neg_antonym","not unsuccessful","person","successful",0,2,"unsuccessful"
15,10628,"four_sliders",3,"Michelle",0.13,"female","most successful","morphological","most unsuccessful","antonym","unsuccessful","person","successful",0,3,"unsuccessful"
15,10628,"four_sliders",3,"Claire",0.32,"female","most successful","morphological","most unsuccessful","neg_positive","not successful","person","successful",0,4,"unsuccessful"
15,13064,"four_sliders",4,"Mia",0.13,"female","most mature","morphological","most immature","antonym","immature","person","mature",0,1,"immature"
15,13064,"four_sliders",4,"Melinda",0.88,"female","most mature","morphological","most immature","positive","mature","person","mature",0,2,"immature"
15,13064,"four_sliders",4,"Greg",0.42,"male","most mature","morphological","most immature","neg_positive","not mature","person","mature",0,3,"immature"
15,13064,"four_sliders",4,"David",0.59,"male","most mature","morphological","most immature","neg_antonym","not immature","person","mature",0,4,"immature"
15,14756,"four_sliders",5,"Sasha",0.54,"female","most honest","morphological","most dishonest","neg_antonym","not dishonest","person","honest",0,1,"dishonest"
15,14756,"four_sliders",5,"Maya",0.88,"female","most honest","morphological","most dishonest","positive","honest","person","honest",0,2,"dishonest"
15,14756,"four_sliders",5,"Veronica",0.1,"female","most honest","morphological","most dishonest","antonym","dishonest","person","honest",0,3,"dishonest"
15,14756,"four_sliders",5,"Stephen",0.39,"male","most honest","morphological","most dishonest","neg_positive","not honest","person","honest",0,4,"dishonest"
15,11952,"four_sliders",6,"Kathleen",0.57,"female","tallest","lexical","shortest","neg_antonym","not short","person","tall",1,1,"short"
15,11952,"four_sliders",6,"Lucas",0.47,"male","tallest","lexical","shortest","neg_positive","not tall","person","tall",1,2,"short"
15,11952,"four_sliders",6,"Julia",0.89,"female","tallest","lexical","shortest","positive","tall","person","tall",1,3,"short"
15,11952,"four_sliders",6,"Andrew",0.09,"male","tallest","lexical","shortest","antonym","short","person","tall",1,4,"short"
15,15491,"four_sliders",7,"William",0.58,"male","most friendly","morphological","most unfriendly","neg_antonym","not unfriendly","person","friendly",0,1,"unfriendly"
15,15491,"four_sliders",7,"Kim",0.29,"female","most friendly","morphological","most unfriendly","neg_positive","not friendly","person","friendly",0,2,"unfriendly"
15,15491,"four_sliders",7,"Alison",0.84,"female","most friendly","morphological","most unfriendly","positive","friendly","person","friendly",0,3,"unfriendly"
15,15491,"four_sliders",7,"Monica",0.12,"female","most friendly","morphological","most unfriendly","antonym","unfriendly","person","friendly",0,4,"unfriendly"
15,8791,"four_sliders",8,"Diana",0.83,"female","most brave","lexical","most cowardly","positive","brave","person","brave",0,1,"cowardly"
15,8791,"four_sliders",8,"Stephanie",0.12,"female","most brave","lexical","most cowardly","antonym","cowardly","person","brave",0,2,"cowardly"
15,8791,"four_sliders",8,"Michael",0.36,"male","most brave","lexical","most cowardly","neg_positive","not brave","person","brave",0,3,"cowardly"
15,8791,"four_sliders",8,"Jeremy",0.57,"male","most brave","lexical","most cowardly","neg_antonym","not cowardly","person","brave",0,4,"cowardly"
15,14692,"four_sliders",9,"Alexander",0.57,"male","most hard-working","lexical","most lazy","neg_antonym","not lazy","person","hard-working",0,1,"lazy"
15,14692,"four_sliders",9,"Daniel",0.15,"male","most hard-working","lexical","most lazy","antonym","lazy","person","hard-working",0,2,"lazy"
15,14692,"four_sliders",9,"Anthony",0.47,"male","most hard-working","lexical","most lazy","neg_positive","not hard-working","person","hard-working",0,3,"lazy"
15,14692,"four_sliders",9,"Emma",0.89,"female","most hard-working","lexical","most lazy","positive","hard-working","person","hard-working",0,4,"lazy"
15,11623,"four_sliders",10,"John",0.13,"male","most beautiful","lexical","most ugly","antonym","ugly","person","beautiful",0,1,"ugly"
15,11623,"four_sliders",10,"Laura",0.51,"female","most beautiful","lexical","most ugly","neg_positive","not beautiful","person","beautiful",0,2,"ugly"
15,11623,"four_sliders",10,"Eric",0.92,"male","most beautiful","lexical","most ugly","positive","beautiful","person","beautiful",0,3,"ugly"
15,11623,"four_sliders",10,"Charles",0.53,"male","most beautiful","lexical","most ugly","neg_antonym","not ugly","person","beautiful",0,4,"ugly"
16,28208,"four_sliders",1,"Stephen",0.13,"male","most loud","lexical","most quiet","antonym","quiet","person","loud",0,1,"quiet"
16,28208,"four_sliders",1,"Maya",0.74,"female","most loud","lexical","most quiet","positive","loud","person","loud",0,2,"quiet"
16,28208,"four_sliders",1,"Claire",0.65,"female","most loud","lexical","most quiet","neg_antonym","not quiet","person","loud",0,3,"quiet"
16,28208,"four_sliders",1,"Sasha",0.22,"female","most loud","lexical","most quiet","neg_positive","not loud","person","loud",0,4,"quiet"
16,18799,"four_sliders",2,"Andrew",0.67,"male","most attractive","morphological","most unattractive","neg_antonym","not unattractive","person","attractive",0,1,"unattractive"
16,18799,"four_sliders",2,"David",0.13,"male","most attractive","morphological","most unattractive","neg_positive","not attractive","person","attractive",0,2,"unattractive"
16,18799,"four_sliders",2,"Eric",0.09,"male","most attractive","morphological","most unattractive","antonym","unattractive","person","attractive",0,3,"unattractive"
16,18799,"four_sliders",2,"Gabriel",0.82,"male","most attractive","morphological","most unattractive","positive","attractive","person","attractive",0,4,"unattractive"
16,69552,"four_sliders",3,"John",0.69,"male","most successful","morphological","most unsuccessful","neg_antonym","not unsuccessful","person","successful",0,1,"unsuccessful"
16,69552,"four_sliders",3,"Dylan",0.11,"male","most successful","morphological","most unsuccessful","antonym","unsuccessful","person","successful",0,2,"unsuccessful"
16,69552,"four_sliders",3,"Sophia",0.2,"female","most successful","morphological","most unsuccessful","neg_positive","not successful","person","successful",0,3,"unsuccessful"
16,69552,"four_sliders",3,"Samuel",0.8,"male","most successful","morphological","most unsuccessful","positive","successful","person","successful",0,4,"unsuccessful"
16,16635,"four_sliders",4,"Tom",0.69,"male","most brave","lexical","most cowardly","neg_antonym","not cowardly","person","brave",0,1,"cowardly"
16,16635,"four_sliders",4,"Lee",0.81,"male","most brave","lexical","most cowardly","positive","brave","person","brave",0,2,"cowardly"
16,16635,"four_sliders",4,"Cameron",0.14,"male","most brave","lexical","most cowardly","antonym","cowardly","person","brave",0,3,"cowardly"
16,16635,"four_sliders",4,"Alicia",0.21,"female","most brave","lexical","most cowardly","neg_positive","not brave","person","brave",0,4,"cowardly"
16,973673,"four_sliders",5,"Veronica",0.16,"female","richest","lexical","poorest","neg_positive","not rich","person","rich",1,1,"poor"
16,973673,"four_sliders",5,"Anthony",0.89,"male","richest","lexical","poorest","positive","rich","person","rich",1,2,"poor"
16,973673,"four_sliders",5,"Greg",0.1,"male","richest","lexical","poorest","antonym","poor","person","rich",1,3,"poor"
16,973673,"four_sliders",5,"Stephanie",0.79,"female","richest","lexical","poorest","neg_antonym","not poor","person","rich",1,4,"poor"
16,11502,"four_sliders",6,"Jeremy",0.78,"male","happiest","morphological","unhappiest","positive","happy","person","happy",1,1,"unhappy"
16,11502,"four_sliders",6,"Mia",0.23,"female","happiest","morphological","unhappiest","antonym","unhappy","person","happy",1,2,"unhappy"
16,11502,"four_sliders",6,"Daniel",0.73,"male","happiest","morphological","unhappiest","neg_antonym","not unhappy","person","happy",1,3,"unhappy"
16,11502,"four_sliders",6,"Diana",0.12,"female","happiest","morphological","unhappiest","neg_positive","not happy","person","happy",1,4,"unhappy"
16,16255,"four_sliders",7,"Kim",0.82,"female","fattest","lexical","skinniest","positive","fat","person","fat",1,1,"skinny"
16,16255,"four_sliders",7,"Michael",0.31,"male","fattest","lexical","skinniest","neg_positive","not fat","person","fat",1,2,"skinny"
16,16255,"four_sliders",7,"Laura",0.13,"female","fattest","lexical","skinniest","antonym","skinny","person","fat",1,3,"skinny"
16,16255,"four_sliders",7,"Charles",0.67,"male","fattest","lexical","skinniest","neg_antonym","not skinny","person","fat",1,4,"skinny"
16,11711,"four_sliders",8,"Monica",0.79,"female","strongest","lexical","weakest","positive","strong","person","strong",1,1,"weak"
16,11711,"four_sliders",8,"Julia",0.11,"female","strongest","lexical","weakest","antonym","weak","person","strong",1,2,"weak"
16,11711,"four_sliders",8,"Michelle",0.22,"female","strongest","lexical","weakest","neg_positive","not strong","person","strong",1,3,"weak"
16,11711,"four_sliders",8,"Emma",0.68,"female","strongest","lexical","weakest","neg_antonym","not weak","person","strong",1,4,"weak"
16,12167,"four_sliders",9,"Lucas",0.7,"male","most educated","morphological","most uneducated","neg_antonym","not uneducated","person","educated",0,1,"uneducated"
16,12167,"four_sliders",9,"Angela",0.13,"female","most educated","morphological","most uneducated","antonym","uneducated","person","educated",0,2,"uneducated"
