"workerid","rt","trial_type","trial_num","name","positive","negation","sentence_type","adjective","referent","gender","response","antonym"
0,11018,"one_slider",1,"Monica","brave","lexical","neither_pos_nor_ant","neither brave nor cowardly","person","female",0.51,"cowardly"
0,5778,"one_slider",2,"Jennifer","honest","morphological","neither_pos_nor_ant","neither honest nor dishonest","person","female",0.41,"dishonest"
0,3923,"one_slider",3,"Lee","brave","lexical","positive","brave","person","male",0.7,"cowardly"
0,4775,"one_slider",4,"Lucas","moral","morphological","neg_positive","not moral","person","male",0.14,"immoral"
0,4197,"one_slider",5,"Claire","moral","morphological","antonym","immoral","person","female",0.17,"immoral"
0,3307,"one_slider",6,"Daniel","moral","morphological","positive","moral","person","male",0.87,"immoral"
0,3777,"one_slider",7,"Sophia","fat","lexical","neither_pos_nor_ant","neither fat nor skinny","person","female",0.5,"skinny"
0,4817,"one_slider",8,"Maya","honest","morphological","neg_antonym","not dishonest","person","female",0.62,"dishonest"
0,4407,"one_slider",9,"Melinda","fat","lexical","antonym","skinny","person","female",0.07,"skinny"
0,6090,"one_slider",10,"Alicia","hard-working","lexical","antonym","lazy","person","female",0.05,"lazy"
0,3506,"one_slider",11,"Angela","rich","lexical","neg_antonym","not poor","person","female",0.6,"poor"
0,4629,"one_slider",12,"Cameron","moral","morphological","neg_antonym","not immoral","person","male",0.72,"immoral"
0,5140,"one_slider",13,"John","brave","lexical","neg_positive","not brave","person","male",0.03,"cowardly"
0,4333,"one_slider",14,"Gabriel","successful","morphological","antonym","unsuccessful","person","male",0.11,"unsuccessful"
0,3956,"one_slider",15,"Stephanie","tall","lexical","neg_antonym","not short","person","female",0.9,"short"
0,5085,"one_slider",16,"Michael","educated","morphological","antonym","uneducated","person","male",0.11,"uneducated"
0,4075,"one_slider",17,"Alexander","rich","lexical","neg_positive","not rich","person","male",0.28,"poor"
0,3478,"one_slider",18,"Eric","old","lexical","neg_positive","not old","person","male",0.3,"young"
0,2706,"one_slider",19,"Julia","rich","lexical","positive","rich","person","female",0.9,"poor"
0,3387,"one_slider",20,"David","hard-working","lexical","positive","hard-working","person","male",0.89,"lazy"
0,4133,"one_slider",21,"Veronica","tolerant","morphological","neither_pos_nor_ant","neither tolerant nor intolerant","person","female",0.49,"intolerant"
0,4363,"one_slider",22,"Greg","brave","lexical","neg_antonym","not cowardly","person","male",0.66,"cowardly"
0,3429,"one_slider",23,"Kim","educated","morphological","neg_antonym","not uneducated","person","female",0.8,"uneducated"
0,3107,"one_slider",24,"Tom","fat","lexical","neg_positive","not fat","person","male",0.26,"skinny"
0,3213,"one_slider",25,"Laura","honest","morphological","neg_positive","not honest","person","female",0.16,"dishonest"
0,4011,"one_slider",26,"William","successful","morphological","positive","successful","person","male",0.9,"unsuccessful"
0,3311,"one_slider",27,"Anthony","educated","morphological","neither_pos_nor_ant","neither educated nor uneducated","person","male",0.5,"uneducated"
0,3081,"one_slider",28,"Kathleen","friendly","morphological","neg_positive","not friendly","person","female",0.22,"unfriendly"
0,2931,"one_slider",29,"Stephen","fat","lexical","positive","fat","person","male",0.86,"skinny"
0,3331,"one_slider",30,"Michelle","old","lexical","neg_antonym","not young","person","female",0.76,"young"
1,11367,"one_slider",1,"Maya","educated","morphological","positive","educated","person","female",0.91,"uneducated"
1,12367,"one_slider",2,"Monica","honest","morphological","neither_pos_nor_ant","neither honest nor dishonest","person","female",0.51,"dishonest"
1,5408,"one_slider",3,"Tom","moral","morphological","neg_positive","not moral","person","male",0.04,"immoral"
1,4348,"one_slider",4,"Alexander","successful","morphological","positive","successful","person","male",0.76,"unsuccessful"
1,5917,"one_slider",5,"Stephen","hard-working","lexical","neither_pos_nor_ant","neither hard-working nor lazy","person","male",0.53,"lazy"
1,4916,"one_slider",6,"Lee","rich","lexical","antonym","poor","person","male",0.06,"poor"
1,3471,"one_slider",7,"Daniel","honest","morphological","positive","honest","person","male",0.91,"dishonest"
1,4174,"one_slider",8,"Claire","fat","lexical","positive","fat","person","female",0.82,"skinny"
1,7965,"one_slider",9,"Michael","old","lexical","neg_antonym","not young","person","male",0.78,"young"
1,4960,"one_slider",10,"Alicia","hard-working","lexical","positive","hard-working","person","female",0.94,"lazy"
1,4713,"one_slider",11,"William","old","lexical","antonym","young","person","male",0.12,"young"
1,10192,"one_slider",12,"Greg","tolerant","morphological","neg_antonym","not intolerant","person","male",0.87,"intolerant"
1,4109,"one_slider",13,"Angela","fat","lexical","neither_pos_nor_ant","neither fat nor skinny","person","female",0.5,"skinny"
1,4789,"one_slider",14,"Anthony","moral","morphological","antonym","immoral","person","male",0.08,"immoral"
1,4789,"one_slider",15,"David","honest","morphological","antonym","dishonest","person","male",0.08,"dishonest"
1,5105,"one_slider",16,"Melinda","tall","lexical","antonym","short","person","female",0.11,"short"
1,10589,"one_slider",17,"Kim","hard-working","lexical","neg_antonym","not lazy","person","female",0.71,"lazy"
1,3326,"one_slider",18,"Lucas","brave","lexical","positive","brave","person","male",0.86,"cowardly"
1,7315,"one_slider",19,"John","fat","lexical","neg_antonym","not skinny","person","male",0.51,"skinny"
1,6810,"one_slider",20,"Cameron","brave","lexical","neg_positive","not brave","person","male",0.21,"cowardly"
1,4236,"one_slider",21,"Michelle","tolerant","morphological","positive","tolerant","person","female",0.84,"intolerant"
1,3684,"one_slider",22,"Laura","rich","lexical","positive","rich","person","female",0.82,"poor"
1,4915,"one_slider",23,"Julia","honest","morphological","neg_positive","not honest","person","female",0.18,"dishonest"
1,4150,"one_slider",24,"Eric","fat","lexical","antonym","skinny","person","male",0.14,"skinny"
1,14040,"one_slider",25,"Gabriel","successful","morphological","neg_antonym","not unsuccessful","person","male",0.54,"unsuccessful"
1,3072,"one_slider",26,"Stephanie","rich","lexical","neither_pos_nor_ant","neither rich nor poor","person","female",0.48,"poor"
1,7336,"one_slider",27,"Jennifer","tall","lexical","neg_antonym","not short","person","female",0.46,"short"
1,5659,"one_slider",28,"Kathleen","moral","morphological","neither_pos_nor_ant","neither moral nor immoral","person","female",0.48,"immoral"
1,5261,"one_slider",29,"Veronica","successful","morphological","neither_pos_nor_ant","neither successful nor unsuccessful","person","female",0.5,"unsuccessful"
1,4749,"one_slider",30,"Sophia","tall","lexical","positive","tall","person","female",0.77,"short"
2,7822,"one_slider",1,"Gabriel","rich","lexical","neither_pos_nor_ant","neither rich nor poor","person","male",0.59,"poor"
2,6527,"one_slider",2,"Alicia","honest","morphological","antonym","dishonest","person","female",0.14,"dishonest"
2,4217,"one_slider",3,"David","hard-working","lexical","neg_positive","not hard-working","person","male",0.15,"lazy"
2,5240,"one_slider",4,"Veronica","old","lexical","antonym","young","person","female",0.3,"young"
2,7967,"one_slider",5,"Stephen","educated","morphological","neither_pos_nor_ant","neither educated nor uneducated","person","male",0.53,"uneducated"
2,4063,"one_slider",6,"Cameron","hard-working","lexical","neg_antonym","not lazy","person","male",0.89,"lazy"
2,4511,"one_slider",7,"William","rich","lexical","antonym","poor","person","male",0.18,"poor"
2,4351,"one_slider",8,"Julia","hard-working","lexical","neither_pos_nor_ant","neither hard-working nor lazy","person","female",0.53,"lazy"
2,3512,"one_slider",9,"Stephanie","moral","morphological","positive","moral","person","female",0.87,"immoral"
2,4527,"one_slider",10,"Greg","brave","lexical","neither_pos_nor_ant","neither brave nor cowardly","person","male",0.47,"cowardly"
2,4447,"one_slider",11,"Monica","tall","lexical","neg_antonym","not short","person","female",0.81,"short"
2,4175,"one_slider",12,"Laura","educated","morphological","neg_antonym","not uneducated","person","female",0.71,"uneducated"
2,5335,"one_slider",13,"Sophia","friendly","morphological","neither_pos_nor_ant","neither friendly nor unfriendly","person","female",0.52,"unfriendly"
2,4215,"one_slider",14,"Claire","old","lexical","positive","old","person","female",0.8,"young"
2,4759,"one_slider",15,"Michelle","tall","lexical","neither_pos_nor_ant","neither tall nor short","person","female",0.48,"short"
2,3656,"one_slider",16,"Anthony","moral","morphological","antonym","immoral","person","male",0.16,"immoral"
2,3511,"one_slider",17,"Alexander","tall","lexical","positive","tall","person","male",0.91,"short"
2,3103,"one_slider",18,"Melinda","rich","lexical","neg_positive","not rich","person","female",0.05,"poor"
2,4567,"one_slider",19,"Daniel","brave","lexical","antonym","cowardly","person","male",0.03,"cowardly"
2,4399,"one_slider",20,"Kim","fat","lexical","neg_antonym","not skinny","person","female",0.64,"skinny"
2,5231,"one_slider",21,"Lucas","friendly","morphological","neg_positive","not friendly","person","male",0.16,"unfriendly"
2,6479,"one_slider",22,"Angela","hard-working","lexical","positive","hard-working","person","female",0.92,"lazy"
2,7031,"one_slider",23,"Michael","fat","lexical","neg_positive","not fat","person","male",0.34,"skinny"
2,4047,"one_slider",24,"Eric","hard-working","lexical","antonym","lazy","person","male",0.12,"lazy"
2,5696,"one_slider",25,"Jennifer","friendly","morphological","antonym","unfriendly","person","female",0.15,"unfriendly"
2,4583,"one_slider",26,"John","moral","morphological","neg_antonym","not immoral","person","male",0.69,"immoral"
2,3759,"one_slider",27,"Tom","honest","morphological","neither_pos_nor_ant","neither honest nor dishonest","person","male",0.5,"dishonest"
2,3576,"one_slider",28,"Lee","moral","morphological","neither_pos_nor_ant","neither moral nor immoral","person","male",0.53,"immoral"
2,5520,"one_slider",29,"Maya","rich","lexical","neg_antonym","not poor","person","female",0.71,"poor"
2,3112,"one_slider",30,"Kathleen","rich","lexical","positive","rich","person","female",0.88,"poor"
3,7781,"one_slider",1,"Laura","tolerant","morphological","neg_antonym","not intolerant","person","female",0.89,"intolerant"
3,3440,"one_slider",2,"Sophia","brave","lexical","neg_antonym","not cowardly","person","female",0.65,"cowardly"
3,39948,"one_slider",3,"Anthony","successful","morphological","neither_pos_nor_ant","neither successful nor unsuccessful","person","male",0.48,"unsuccessful"
3,4375,"one_slider",4,"Alicia","educated","morphological","antonym","uneducated","person","female",0,"uneducated"
3,5602,"one_slider",5,"Stephen","fat","lexical","neg_positive","not fat","person","male",0.31,"skinny"
3,8228,"one_slider",6,"Lucas","friendly","morphological","antonym","unfriendly","person","male",0,"unfriendly"
3,3213,"one_slider",7,"Kim","moral","morphological","neg_positive","not moral","person","female",0.22,"immoral"
3,5815,"one_slider",8,"Lee","hard-working","lexical","neg_antonym","not lazy","person","male",0.77,"lazy"
3,6567,"one_slider",9,"Stephanie","fat","lexical","antonym","skinny","person","female",0,"skinny"
3,6430,"one_slider",10,"Tom","tall","lexical","neg_positive","not tall","person","male",0.35,"short"
3,6545,"one_slider",11,"Michael","old","lexical","neg_antonym","not young","person","male",0.55,"young"
3,4047,"one_slider",12,"David","hard-working","lexical","antonym","lazy","person","male",0.05,"lazy"
3,16973,"one_slider",13,"Jennifer","fat","lexical","neither_pos_nor_ant","neither fat nor skinny","person","female",0.45,"skinny"
3,3719,"one_slider",14,"Monica","educated","morphological","positive","educated","person","female",1,"uneducated"
3,7343,"one_slider",15,"Cameron","hard-working","lexical","positive","hard-working","person","male",0.91,"lazy"
3,9051,"one_slider",16,"William","educated","morphological","neither_pos_nor_ant","neither educated nor uneducated","person","male",0.48,"uneducated"
3,2579,"one_slider",17,"Alexander","friendly","morphological","positive","friendly","person","male",0.95,"unfriendly"
3,94291,"one_slider",18,"Melinda","rich","lexical","neither_pos_nor_ant","neither rich nor poor","person","female",0.5,"poor"
3,2812,"one_slider",19,"Greg","honest","morphological","positive","honest","person","male",0.95,"dishonest"
3,4122,"one_slider",20,"Eric","successful","morphological","neg_antonym","not unsuccessful","person","male",0.55,"unsuccessful"
3,8207,"one_slider",21,"Kathleen","brave","lexical","neither_pos_nor_ant","neither brave nor cowardly","person","female",0.5,"cowardly"
3,7438,"one_slider",22,"Gabriel","tolerant","morphological","neither_pos_nor_ant","neither tolerant nor intolerant","person","male",0.49,"intolerant"
3,2855,"one_slider",23,"John","brave","lexical","positive","brave","person","male",0.87,"cowardly"
3,4231,"one_slider",24,"Angela","brave","lexical","neg_positive","not brave","person","female",0.2,"cowardly"
3,4552,"one_slider",25,"Claire","friendly","morphological","neither_pos_nor_ant","neither friendly nor unfriendly","person","female",0.48,"unfriendly"
3,3258,"one_slider",26,"Daniel","rich","lexical","positive","rich","person","male",0.98,"poor"
3,4114,"one_slider",27,"Maya","successful","morphological","neg_positive","not successful","person","female",0.11,"unsuccessful"
3,2824,"one_slider",28,"Veronica","educated","morphological","neg_positive","not educated","person","female",0.13,"uneducated"
3,4528,"one_slider",29,"Michelle","friendly","morphological","neg_antonym","not unfriendly","person","female",0.76,"unfriendly"
3,3791,"one_slider",30,"Julia","brave","lexical","antonym","cowardly","person","female",0,"cowardly"
4,7338,"one_slider",1,"Eric","tolerant","morphological","neither_pos_nor_ant","neither tolerant nor intolerant","person","male",0.43,"intolerant"
4,3806,"one_slider",2,"Tom","old","lexical","positive","old","person","male",0.84,"young"
4,5055,"one_slider",3,"Claire","honest","morphological","neither_pos_nor_ant","neither honest nor dishonest","person","female",0.41,"dishonest"
4,6111,"one_slider",4,"Michael","moral","morphological","antonym","immoral","person","male",0.12,"immoral"
4,4759,"one_slider",5,"Cameron","brave","lexical","antonym","cowardly","person","male",0.15,"cowardly"
4,4815,"one_slider",6,"Lee","old","lexical","neg_positive","not old","person","male",0.51,"young"
4,4046,"one_slider",7,"Lucas","fat","lexical","positive","fat","person","male",0.74,"skinny"
4,8295,"one_slider",8,"Angela","successful","morphological","neither_pos_nor_ant","neither successful nor unsuccessful","person","female",0.4,"unsuccessful"
4,7712,"one_slider",9,"Laura","tall","lexical","neg_antonym","not short","person","female",0.63,"short"
4,4103,"one_slider",10,"Julia","tall","lexical","positive","tall","person","female",0.8,"short"
4,3039,"one_slider",11,"Greg","tall","lexical","antonym","short","person","male",0.17,"short"
4,4576,"one_slider",12,"Veronica","old","lexical","antonym","young","person","female",0.08,"young"
4,3847,"one_slider",13,"Michelle","rich","lexical","antonym","poor","person","female",0.11,"poor"
4,5078,"one_slider",14,"David","moral","morphological","neg_antonym","not immoral","person","male",0.47,"immoral"
4,5471,"one_slider",15,"Melinda","fat","lexical","neg_positive","not fat","person","female",0.47,"skinny"
4,4063,"one_slider",16,"Kathleen","old","lexical","neither_pos_nor_ant","neither old nor young","person","female",0.49,"young"
4,4887,"one_slider",17,"William","rich","lexical","neg_positive","not rich","person","male",0.38,"poor"
4,4568,"one_slider",18,"Alexander","successful","morphological","neg_positive","not successful","person","male",0.36,"unsuccessful"
4,2399,"one_slider",19,"Anthony","fat","lexical","neither_pos_nor_ant","neither fat nor skinny","person","male",0.48,"skinny"
4,2047,"one_slider",20,"Maya","brave","lexical","neither_pos_nor_ant","neither brave nor cowardly","person","female",0.51,"cowardly"
4,3287,"one_slider",21,"Stephen","fat","lexical","antonym","skinny","person","male",0.18,"skinny"
4,3959,"one_slider",22,"Jennifer","hard-working","lexical","neg_positive","not hard-working","person","female",0.34,"lazy"
4,3576,"one_slider",23,"Stephanie","hard-working","lexical","neither_pos_nor_ant","neither hard-working nor lazy","person","female",0.54,"lazy"
4,2335,"one_slider",24,"John","educated","morphological","neither_pos_nor_ant","neither educated nor uneducated","person","male",0.48,"uneducated"
4,2374,"one_slider",25,"Daniel","friendly","morphological","neither_pos_nor_ant","neither friendly nor unfriendly","person","male",0.49,"unfriendly"
4,5287,"one_slider",26,"Kim","tolerant","morphological","neg_positive","not tolerant","person","female",0.21,"intolerant"
4,2943,"one_slider",27,"Monica","brave","lexical","neg_positive","not brave","person","female",0.27,"cowardly"
4,4231,"one_slider",28,"Sophia","educated","morphological","neg_antonym","not uneducated","person","female",0.61,"uneducated"
4,4232,"one_slider",29,"Alicia","tolerant","morphological","antonym","intolerant","person","female",0.18,"intolerant"
4,2711,"one_slider",30,"Gabriel","tall","lexical","neither_pos_nor_ant","neither tall nor short","person","male",0.52,"short"
5,9514,"one_slider",1,"Melinda","successful","morphological","positive","successful","person","female",0.76,"unsuccessful"
5,5351,"one_slider",2,"Claire","friendly","morphological","antonym","unfriendly","person","female",0.17,"unfriendly"
5,4982,"one_slider",3,"Cameron","old","lexical","neg_antonym","not young","person","male",0.71,"young"
5,5003,"one_slider",4,"Stephanie","moral","morphological","neither_pos_nor_ant","neither moral nor immoral","person","female",0.5,"immoral"
5,3881,"one_slider",5,"Sophia","tolerant","morphological","neg_antonym","not intolerant","person","female",0.75,"intolerant"
5,3398,"one_slider",6,"Maya","friendly","morphological","neg_antonym","not unfriendly","person","female",0.76,"unfriendly"
5,2415,"one_slider",7,"Daniel","successful","morphological","antonym","unsuccessful","person","male",0.74,"unsuccessful"
5,4116,"one_slider",8,"Kathleen","tall","lexical","neg_positive","not tall","person","female",0.28,"short"
5,3645,"one_slider",9,"Lee","hard-working","lexical","neg_positive","not hard-working","person","male",0.37,"lazy"
5,4480,"one_slider",10,"Michael","honest","morphological","neither_pos_nor_ant","neither honest nor dishonest","person","male",0.49,"dishonest"
5,4036,"one_slider",11,"Anthony","friendly","morphological","neither_pos_nor_ant","neither friendly nor unfriendly","person","male",0.48,"unfriendly"
5,4095,"one_slider",12,"Stephen","educated","morphological","positive","educated","person","male",0.98,"uneducated"
5,3137,"one_slider",13,"Alicia","moral","morphological","neg_antonym","not immoral","person","female",0.81,"immoral"
5,3425,"one_slider",14,"Kim","educated","morphological","neg_antonym","not uneducated","person","female",0.84,"uneducated"
5,2836,"one_slider",15,"Angela","tall","lexical","neither_pos_nor_ant","neither tall nor short","person","female",0.5,"short"
5,2742,"one_slider",16,"David","old","lexical","neg_positive","not old","person","male",0.24,"young"
5,3850,"one_slider",17,"Lucas","tolerant","morphological","neg_positive","not tolerant","person","male",0.26,"intolerant"
5,2322,"one_slider",18,"William","successful","morphological","neg_positive","not successful","person","male",0.22,"unsuccessful"
5,2314,"one_slider",19,"Jennifer","friendly","morphological","neg_positive","not friendly","person","female",0.19,"unfriendly"
5,3379,"one_slider",20,"Alexander","hard-working","lexical","antonym","lazy","person","male",0,"lazy"
5,3670,"one_slider",21,"Julia","tolerant","morphological","positive","tolerant","person","female",1,"intolerant"
5,2739,"one_slider",22,"Tom","brave","lexical","antonym","cowardly","person","male",0.01,"cowardly"
5,4092,"one_slider",23,"Greg","honest","morphological","positive","honest","person","male",0.99,"dishonest"
5,2652,"one_slider",24,"Monica","educated","morphological","neg_positive","not educated","person","female",0.18,"uneducated"
5,4039,"one_slider",25,"Eric","honest","morphological","antonym","dishonest","person","male",0.01,"dishonest"
5,4092,"one_slider",26,"Veronica","old","lexical","antonym","young","person","female",0,"young"
5,2651,"one_slider",27,"Gabriel","educated","morphological","neither_pos_nor_ant","neither educated nor uneducated","person","male",0.49,"uneducated"
5,4486,"one_slider",28,"John","rich","lexical","neither_pos_nor_ant","neither rich nor poor","person","male",0.5,"poor"
5,2391,"one_slider",29,"Michelle","tall","lexical","antonym","short","person","female",0.2,"short"
5,3280,"one_slider",30,"Laura","tolerant","morphological","neither_pos_nor_ant","neither tolerant nor intolerant","person","female",0.51,"intolerant"
6,4150,"one_slider",1,"Anthony","honest","morphological","neither_pos_nor_ant","neither honest nor dishonest","person","male",0.47,"dishonest"
6,2546,"one_slider",2,"Alexander","moral","morphological","antonym","immoral","person","male",0,"immoral"
6,2783,"one_slider",3,"Cameron","tolerant","morphological","antonym","intolerant","person","male",0.22,"intolerant"
6,1944,"one_slider",4,"Eric","educated","morphological","positive","educated","person","male",0.75,"uneducated"
6,3389,"one_slider",5,"Alicia","fat","lexical","neg_positive","not fat","person","female",0.12,"skinny"
6,2109,"one_slider",6,"Tom","friendly","morphological","neg_positive","not friendly","person","male",0.2,"unfriendly"
6,3924,"one_slider",7,"Gabriel","fat","lexical","antonym","skinny","person","male",0.03,"skinny"
6,1761,"one_slider",8,"Kathleen","tolerant","morphological","positive","tolerant","person","female",0.75,"intolerant"
6,2881,"one_slider",9,"Michael","tolerant","morphological","neg_positive","not tolerant","person","male",0.21,"intolerant"
6,2017,"one_slider",10,"Michelle","moral","morphological","positive","moral","person","female",0.88,"immoral"
6,3231,"one_slider",11,"Lucas","rich","lexical","positive","rich","person","male",1,"poor"
6,2798,"one_slider",12,"Stephanie","tall","lexical","neither_pos_nor_ant","neither tall nor short","person","female",0.51,"short"
6,4292,"one_slider",13,"Jennifer","moral","morphological","neither_pos_nor_ant","neither moral nor immoral","person","female",0.48,"immoral"
6,2048,"one_slider",14,"John","fat","lexical","neither_pos_nor_ant","neither fat nor skinny","person","male",0.47,"skinny"
6,1769,"one_slider",15,"Sophia","hard-working","lexical","neither_pos_nor_ant","neither hard-working nor lazy","person","female",0.43,"lazy"
6,3500,"one_slider",16,"Julia","fat","lexical","neg_antonym","not skinny","person","female",0.62,"skinny"
6,2221,"one_slider",17,"Laura","rich","lexical","neither_pos_nor_ant","neither rich nor poor","person","female",0.5,"poor"
6,2120,"one_slider",18,"Daniel","tall","lexical","positive","tall","person","male",0.77,"short"
6,2957,"one_slider",19,"Angela","tall","lexical","neg_antonym","not short","person","female",0.67,"short"
6,3554,"one_slider",20,"Veronica","friendly","morphological","positive","friendly","person","female",0.83,"unfriendly"
6,3162,"one_slider",21,"Maya","educated","morphological","neg_antonym","not uneducated","person","female",0.54,"uneducated"
6,4698,"one_slider",22,"Greg","brave","lexical","neg_antonym","not cowardly","person","male",0.56,"cowardly"
6,1871,"one_slider",23,"William","hard-working","lexical","neg_positive","not hard-working","person","male",0.34,"lazy"
6,7828,"one_slider",24,"Claire","successful","morphological","neg_positive","not successful","person","female",0.23,"unsuccessful"
6,3476,"one_slider",25,"Stephen","tolerant","morphological","neg_antonym","not intolerant","person","male",0.64,"intolerant"
6,2240,"one_slider",26,"Monica","tall","lexical","antonym","short","person","female",0.17,"short"
6,2237,"one_slider",27,"Lee","moral","morphological","neg_antonym","not immoral","person","male",0.58,"immoral"
6,2530,"one_slider",28,"Kim","successful","morphological","positive","successful","person","female",0.81,"unsuccessful"
6,2501,"one_slider",29,"Melinda","old","lexical","positive","old","person","female",0.7,"young"
6,2730,"one_slider",30,"David","hard-working","lexical","neg_antonym","not lazy","person","male",0.85,"lazy"
7,5743,"one_slider",1,"Lucas","old","lexical","neg_antonym","not young","person","male",0.51,"young"
7,1630,"one_slider",2,"Maya","tall","lexical","antonym","short","person","female",0.48,"short"
7,1588,"one_slider",3,"Laura","moral","morphological","neither_pos_nor_ant","neither moral nor immoral","person","female",0.47,"immoral"
7,2091,"one_slider",4,"Greg","fat","lexical","neither_pos_nor_ant","neither fat nor skinny","person","male",0.49,"skinny"
7,1755,"one_slider",5,"Veronica","successful","morphological","neither_pos_nor_ant","neither successful nor unsuccessful","person","female",0.43,"unsuccessful"
7,3182,"one_slider",6,"Kathleen","brave","lexical","neg_antonym","not cowardly","person","female",0.46,"cowardly"
7,4052,"one_slider",7,"Sophia","successful","morphological","positive","successful","person","female",0.47,"unsuccessful"
7,1423,"one_slider",8,"William","educated","morphological","neg_antonym","not uneducated","person","male",0.47,"uneducated"
7,1786,"one_slider",9,"Alexander","fat","lexical","antonym","skinny","person","male",0.5,"skinny"
7,1695,"one_slider",10,"Stephen","friendly","morphological","antonym","unfriendly","person","male",0.47,"unfriendly"
7,1349,"one_slider",11,"Tom","fat","lexical","neg_antonym","not skinny","person","male",0.48,"skinny"
7,3617,"one_slider",12,"David","tolerant","morphological","positive","tolerant","person","male",0.65,"intolerant"
7,2545,"one_slider",13,"John","educated","morphological","positive","educated","person","male",0.64,"uneducated"
7,1536,"one_slider",14,"Monica","hard-working","lexical","neither_pos_nor_ant","neither hard-working nor lazy","person","female",0.58,"lazy"
7,1989,"one_slider",15,"Eric","brave","lexical","positive","brave","person","male",0.49,"cowardly"
7,1347,"one_slider",16,"Kim","tall","lexical","neg_antonym","not short","person","female",0.5,"short"
7,2254,"one_slider",17,"Jennifer","hard-working","lexical","neg_antonym","not lazy","person","female",0.55,"lazy"
7,1396,"one_slider",18,"Claire","hard-working","lexical","positive","hard-working","person","female",0.57,"lazy"
7,3498,"one_slider",19,"Melinda","fat","lexical","positive","fat","person","female",0.49,"skinny"
7,1647,"one_slider",20,"Angela","rich","lexical","positive","rich","person","female",0.5,"poor"
7,1497,"one_slider",21,"Anthony","brave","lexical","neither_pos_nor_ant","neither brave nor cowardly","person","male",0.46,"cowardly"
7,1837,"one_slider",22,"Lee","successful","morphological","antonym","unsuccessful","person","male",0.54,"unsuccessful"
7,4839,"one_slider",23,"Daniel","educated","morphological","antonym","uneducated","person","male",0.47,"uneducated"
7,1312,"one_slider",24,"Gabriel","old","lexical","neg_positive","not old","person","male",0.48,"young"
7,1653,"one_slider",25,"Michelle","tall","lexical","neither_pos_nor_ant","neither tall nor short","person","female",0.46,"short"
7,1382,"one_slider",26,"Michael","old","lexical","neither_pos_nor_ant","neither old nor young","person","male",0.48,"young"
7,1316,"one_slider",27,"Julia","tall","lexical","neg_positive","not tall","person","female",0.51,"short"
7,1429,"one_slider",28,"Alicia","honest","morphological","positive","honest","person","female",0.47,"dishonest"
7,1234,"one_slider",29,"Cameron","honest","morphological","neg_antonym","not dishonest","person","male",0.47,"dishonest"
7,1360,"one_slider",30,"Stephanie","fat","lexical","neg_positive","not fat","person","female",0.55,"skinny"
8,39134,"one_slider",1,"Daniel","friendly","morphological","positive","friendly","person","male",0.92,"unfriendly"
8,2241,"one_slider",2,"Anthony","rich","lexical","neg_antonym","not poor","person","male",0.56,"poor"
8,1433,"one_slider",3,"Sophia","rich","lexical","positive","rich","person","female",0.94,"poor"
8,2227,"one_slider",4,"Stephanie","friendly","morphological","neg_positive","not friendly","person","female",0.19,"unfriendly"
8,19417,"one_slider",5,"Stephen","tall","lexical","neg_antonym","not short","person","male",0.66,"short"
8,39106,"one_slider",6,"William","moral","morphological","positive","moral","person","male",0.76,"immoral"
8,2740,"one_slider",7,"Tom","honest","morphological","neg_positive","not honest","person","male",0.13,"dishonest"
8,2967,"one_slider",8,"Julia","old","lexical","neg_positive","not old","person","female",0.33,"young"
8,2371,"one_slider",9,"David","honest","morphological","antonym","dishonest","person","male",0.22,"dishonest"
8,2075,"one_slider",10,"Lee","friendly","morphological","antonym","unfriendly","person","male",0.09,"unfriendly"
8,2858,"one_slider",11,"Michelle","moral","morphological","neg_positive","not moral","person","female",0.17,"immoral"
8,2690,"one_slider",12,"Alexander","educated","morphological","positive","educated","person","male",0.92,"uneducated"
8,11576,"one_slider",13,"Eric","fat","lexical","antonym","skinny","person","male",0,"skinny"
8,12622,"one_slider",14,"Laura","rich","lexical","neither_pos_nor_ant","neither rich nor poor","person","female",0.39,"poor"
8,3438,"one_slider",15,"Melinda","hard-working","lexical","neg_antonym","not lazy","person","female",0.63,"lazy"
8,1665,"one_slider",16,"Alicia","educated","morphological","neg_antonym","not uneducated","person","female",0.33,"uneducated"
8,2873,"one_slider",17,"Lucas","successful","morphological","antonym","unsuccessful","person","male",0.11,"unsuccessful"
8,2772,"one_slider",18,"Michael","tolerant","morphological","neg_positive","not tolerant","person","male",0.78,"intolerant"
8,13364,"one_slider",19,"John","hard-working","lexical","neither_pos_nor_ant","neither hard-working nor lazy","person","male",0.44,"lazy"
8,2400,"one_slider",20,"Angela","tall","lexical","antonym","short","person","female",0,"short"
8,2245,"one_slider",21,"Monica","hard-working","lexical","positive","hard-working","person","female",1,"lazy"
8,2834,"one_slider",22,"Veronica","honest","morphological","neither_pos_nor_ant","neither honest nor dishonest","person","female",0.52,"dishonest"
8,5902,"one_slider",23,"Kathleen","successful","morphological","neither_pos_nor_ant","neither successful nor unsuccessful","person","female",0.55,"unsuccessful"
8,2074,"one_slider",24,"Kim","fat","lexical","positive","fat","person","female",0.95,"skinny"
8,2675,"one_slider",25,"Jennifer","rich","lexical","antonym","poor","person","female",0.18,"poor"
8,1413,"one_slider",26,"Gabriel","tall","lexical","positive","tall","person","male",0.7,"short"
8,12548,"one_slider",27,"Cameron","tolerant","morphological","antonym","intolerant","person","male",0.19,"intolerant"
8,2077,"one_slider",28,"Greg","tolerant","morphological","positive","tolerant","person","male",0.82,"intolerant"
8,2156,"one_slider",29,"Maya","old","lexical","antonym","young","person","female",0.1,"young"
8,5965,"one_slider",30,"Claire","fat","lexical","neg_antonym","not skinny","person","female",0.92,"skinny"
9,6902,"one_slider",1,"Alicia","old","lexical","antonym","young","person","female",0.02,"young"
9,6887,"one_slider",2,"Lee","fat","lexical","positive","fat","person","male",0.9,"skinny"
9,6943,"one_slider",3,"Lucas","educated","morphological","neither_pos_nor_ant","neither educated nor uneducated","person","male",0.49,"uneducated"
9,5576,"one_slider",4,"Angela","tall","lexical","neither_pos_nor_ant","neither tall nor short","person","female",0.5,"short"
9,4304,"one_slider",5,"Melinda","tall","lexical","positive","tall","person","female",0.89,"short"
9,3784,"one_slider",6,"Julia","moral","morphological","neg_positive","not moral","person","female",0.07,"immoral"
9,4088,"one_slider",7,"William","successful","morphological","antonym","unsuccessful","person","male",0.04,"unsuccessful"
9,5031,"one_slider",8,"Veronica","fat","lexical","neg_positive","not fat","person","female",0.07,"skinny"
9,3320,"one_slider",9,"David","brave","lexical","neg_positive","not brave","person","male",0.04,"cowardly"
9,6032,"one_slider",10,"Michael","fat","lexical","neg_antonym","not skinny","person","male",0.67,"skinny"
9,4055,"one_slider",11,"Monica","tolerant","morphological","positive","tolerant","person","female",0.91,"intolerant"
9,2905,"one_slider",12,"Maya","brave","lexical","positive","brave","person","female",0.9,"cowardly"
9,4360,"one_slider",13,"Eric","tolerant","morphological","neg_positive","not tolerant","person","male",0.06,"intolerant"
9,5120,"one_slider",14,"Daniel","tall","lexical","antonym","short","person","male",0.08,"short"
9,4872,"one_slider",15,"John","educated","morphological","antonym","uneducated","person","male",0.05,"uneducated"
9,3872,"one_slider",16,"Stephanie","tolerant","morphological","neg_antonym","not intolerant","person","female",0.49,"intolerant"
9,5848,"one_slider",17,"Gabriel","tall","lexical","neg_antonym","not short","person","male",0.64,"short"
9,4568,"one_slider",18,"Stephen","honest","morphological","positive","honest","person","male",0.93,"dishonest"
9,5712,"one_slider",19,"Kim","old","lexical","neg_antonym","not young","person","female",0.7,"young"
9,26785,"one_slider",20,"Anthony","friendly","morphological","neither_pos_nor_ant","neither friendly nor unfriendly","person","male",0.49,"unfriendly"
9,4992,"one_slider",21,"Kathleen","moral","morphological","positive","moral","person","female",0.91,"immoral"
9,10576,"one_slider",22,"Cameron","friendly","morphological","positive","friendly","person","male",0.91,"unfriendly"
9,3152,"one_slider",23,"Claire","honest","morphological","neither_pos_nor_ant","neither honest nor dishonest","person","female",0.49,"dishonest"
9,4016,"one_slider",24,"Michelle","tolerant","morphological","neither_pos_nor_ant","neither tolerant nor intolerant","person","female",0.48,"intolerant"
9,3743,"one_slider",25,"Jennifer","rich","lexical","neg_positive","not rich","person","female",0.16,"poor"
9,5944,"one_slider",26,"Laura","hard-working","lexical","antonym","lazy","person","female",0.05,"lazy"
9,3784,"one_slider",27,"Greg","fat","lexical","neither_pos_nor_ant","neither fat nor skinny","person","male",0.5,"skinny"
9,4223,"one_slider",28,"Tom","brave","lexical","antonym","cowardly","person","male",0.05,"cowardly"
9,5944,"one_slider",29,"Sophia","hard-working","lexical","neither_pos_nor_ant","neither hard-working nor lazy","person","female",0.5,"lazy"
9,4152,"one_slider",30,"Alexander","rich","lexical","neg_antonym","not poor","person","male",0.6,"poor"
10,11772,"one_slider",1,"Alexander","successful","morphological","neg_antonym","not unsuccessful","person","male",0.48,"unsuccessful"
10,4111,"one_slider",2,"Anthony","fat","lexical","antonym","skinny","person","male",0,"skinny"
10,5127,"one_slider",3,"Melinda","educated","morphological","neg_positive","not educated","person","female",0.01,"uneducated"
10,3360,"one_slider",4,"Michael","fat","lexical","positive","fat","person","male",1,"skinny"
10,4144,"one_slider",5,"Stephen","rich","lexical","antonym","poor","person","male",0,"poor"
10,4991,"one_slider",6,"Michelle","honest","morphological","neg_positive","not honest","person","female",0,"dishonest"
10,4087,"one_slider",7,"Daniel","educated","morphological","positive","educated","person","male",1,"uneducated"
10,3791,"one_slider",8,"Maya","old","lexical","positive","old","person","female",1,"young"
10,3320,"one_slider",9,"Eric","friendly","morphological","neg_positive","not friendly","person","male",0,"unfriendly"
10,4816,"one_slider",10,"Stephanie","friendly","morphological","neg_antonym","not unfriendly","person","female",0.49,"unfriendly"
10,7471,"one_slider",11,"Kim","hard-working","lexical","neg_positive","not hard-working","person","female",0,"lazy"
10,2335,"one_slider",12,"Monica","hard-working","lexical","antonym","lazy","person","female",0,"lazy"
10,6447,"one_slider",13,"Greg","fat","lexical","neg_antonym","not skinny","person","male",0.51,"skinny"
10,53637,"one_slider",14,"Cameron","old","lexical","neither_pos_nor_ant","neither old nor young","person","male",0.5,"young"
10,2199,"one_slider",15,"Tom","rich","lexical","neither_pos_nor_ant","neither rich nor poor","person","male",0.5,"poor"
10,2751,"one_slider",16,"John","moral","morphological","neither_pos_nor_ant","neither moral nor immoral","person","male",0.49,"immoral"
10,2407,"one_slider",17,"Kathleen","tall","lexical","positive","tall","person","female",1,"short"
10,8536,"one_slider",18,"Laura","fat","lexical","neg_positive","not fat","person","female",0.48,"skinny"
10,2624,"one_slider",19,"Lucas","brave","lexical","positive","brave","person","male",1,"cowardly"
10,5064,"one_slider",20,"Claire","honest","morphological","neither_pos_nor_ant","neither honest nor dishonest","person","female",0.49,"dishonest"
10,3031,"one_slider",21,"Alicia","tall","lexical","neither_pos_nor_ant","neither tall nor short","person","female",0.5,"short"
10,2768,"one_slider",22,"Veronica","successful","morphological","antonym","unsuccessful","person","female",0,"unsuccessful"
10,3240,"one_slider",23,"Lee","educated","morphological","neither_pos_nor_ant","neither educated nor uneducated","person","male",0.48,"uneducated"
10,4104,"one_slider",24,"Angela","rich","lexical","neg_positive","not rich","person","female",0.49,"poor"
10,4184,"one_slider",25,"William","moral","morphological","antonym","immoral","person","male",0,"immoral"
10,2880,"one_slider",26,"Jennifer","tolerant","morphological","antonym","intolerant","person","female",0,"intolerant"
10,3040,"one_slider",27,"Julia","successful","morphological","neither_pos_nor_ant","neither successful nor unsuccessful","person","female",0.48,"unsuccessful"
10,11391,"one_slider",28,"Sophia","educated","morphological","neg_antonym","not uneducated","person","female",1,"uneducated"
10,2959,"one_slider",29,"Gabriel","tolerant","morphological","positive","tolerant","person","male",1,"intolerant"
10,5832,"one_slider",30,"David","brave","lexical","neg_positive","not brave","person","male",0,"cowardly"
11,5207,"one_slider",1,"Stephen","rich","lexical","positive","rich","person","male",0.8,"poor"
11,4382,"one_slider",2,"Alicia","rich","lexical","neg_antonym","not poor","person","female",0.48,"poor"
11,3304,"one_slider",3,"Angela","brave","lexical","antonym","cowardly","person","female",0.08,"cowardly"
11,3224,"one_slider",4,"Daniel","honest","morphological","antonym","dishonest","person","male",0.14,"dishonest"
11,4079,"one_slider",5,"Claire","friendly","morphological","neither_pos_nor_ant","neither friendly nor unfriendly","person","female",0.52,"unfriendly"
11,10648,"one_slider",6,"Alexander","successful","morphological","neg_antonym","not unsuccessful","person","male",0.6,"unsuccessful"
11,5271,"one_slider",7,"Anthony","fat","lexical","positive","fat","person","male",0.87,"skinny"
11,8760,"one_slider",8,"Monica","tolerant","morphological","neg_antonym","not intolerant","person","female",0.51,"intolerant"
11,3432,"one_slider",9,"Maya","moral","morphological","neg_positive","not moral","person","female",0.14,"immoral"
11,2416,"one_slider",10,"Jennifer","educated","morphological","neither_pos_nor_ant","neither educated nor uneducated","person","female",0.52,"uneducated"
11,2336,"one_slider",11,"William","brave","lexical","neither_pos_nor_ant","neither brave nor cowardly","person","male",0.52,"cowardly"
11,2639,"one_slider",12,"Veronica","brave","lexical","positive","brave","person","female",0.89,"cowardly"
11,3576,"one_slider",13,"Eric","tolerant","morphological","positive","tolerant","person","male",0.85,"intolerant"
11,2272,"one_slider",14,"Lee","friendly","morphological","antonym","unfriendly","person","male",0.09,"unfriendly"
11,2512,"one_slider",15,"Lucas","old","lexical","antonym","young","person","male",0.06,"young"
11,2409,"one_slider",16,"Stephanie","moral","morphological","neither_pos_nor_ant","neither moral nor immoral","person","female",0.5,"immoral"
11,3175,"one_slider",17,"Michael","honest","morphological","neither_pos_nor_ant","neither honest nor dishonest","person","male",0.5,"dishonest"
11,4719,"one_slider",18,"Greg","hard-working","lexical","neg_positive","not hard-working","person","male",0.08,"lazy"
11,11480,"one_slider",19,"Tom","hard-working","lexical","positive","hard-working","person","male",0.9,"lazy"
11,2457,"one_slider",20,"Melinda","educated","morphological","positive","educated","person","female",0.86,"uneducated"
11,3600,"one_slider",21,"Michelle","successful","morphological","neg_positive","not successful","person","female",0.11,"unsuccessful"
11,2639,"one_slider",22,"Gabriel","moral","morphological","antonym","immoral","person","male",0.08,"immoral"
11,2376,"one_slider",23,"Kim","tall","lexical","positive","tall","person","female",0.92,"short"
11,3296,"one_slider",24,"Kathleen","tolerant","morphological","neither_pos_nor_ant","neither tolerant nor intolerant","person","female",0.5,"intolerant"
11,4400,"one_slider",25,"Laura","moral","morphological","neg_antonym","not immoral","person","female",0.5,"immoral"
11,2824,"one_slider",26,"Sophia","tall","lexical","neg_antonym","not short","person","female",0.5,"short"
11,5912,"one_slider",27,"David","tall","lexical","antonym","short","person","male",0.04,"short"
11,3904,"one_slider",28,"Julia","tolerant","morphological","neg_positive","not tolerant","person","female",0.07,"intolerant"
11,2696,"one_slider",29,"John","brave","lexical","neg_antonym","not cowardly","person","male",0.88,"cowardly"
11,11160,"one_slider",30,"Cameron","friendly","morphological","neg_antonym","not unfriendly","person","male",0.49,"unfriendly"
12,12978,"one_slider",1,"Anthony","honest","morphological","positive","honest","person","male",0.84,"dishonest"
12,6821,"one_slider",2,"Daniel","educated","morphological","antonym","uneducated","person","male",0.41,"uneducated"
12,8378,"one_slider",3,"Eric","honest","morphological","neither_pos_nor_ant","neither honest nor dishonest","person","male",0.51,"dishonest"
12,4829,"one_slider",4,"Greg","moral","morphological","positive","moral","person","male",0.82,"immoral"
12,6092,"one_slider",5,"Michelle","friendly","morphological","antonym","unfriendly","person","female",0.12,"unfriendly"
12,4545,"one_slider",6,"William","friendly","morphological","positive","friendly","person","male",0.9,"unfriendly"
12,3779,"one_slider",7,"Stephen","tolerant","morphological","neither_pos_nor_ant","neither tolerant nor intolerant","person","male",0.53,"intolerant"
12,7214,"one_slider",8,"Alexander","fat","lexical","neg_positive","not fat","person","male",0.09,"skinny"
12,2955,"one_slider",9,"Cameron","tolerant","morphological","antonym","intolerant","person","male",0.83,"intolerant"
12,5864,"one_slider",10,"Alicia","successful","morphological","antonym","unsuccessful","person","female",0.53,"unsuccessful"
12,3461,"one_slider",11,"Jennifer","brave","lexical","neither_pos_nor_ant","neither brave nor cowardly","person","female",0.45,"cowardly"
12,5161,"one_slider",12,"Melinda","moral","morphological","antonym","immoral","person","female",0.34,"immoral"
12,3515,"one_slider",13,"Kim","educated","morphological","neg_positive","not educated","person","female",0.19,"uneducated"
12,4280,"one_slider",14,"Kathleen","friendly","morphological","neg_antonym","not unfriendly","person","female",0.17,"unfriendly"
12,4712,"one_slider",15,"Claire","old","lexical","neither_pos_nor_ant","neither old nor young","person","female",0.52,"young"
12,3090,"one_slider",16,"Michael","tolerant","morphological","positive","tolerant","person","male",0.73,"intolerant"
12,8384,"one_slider",17,"Gabriel","honest","morphological","neg_positive","not honest","person","male",0.22,"dishonest"
12,5877,"one_slider",18,"David","tall","lexical","neg_antonym","not short","person","male",0.82,"short"
12,8295,"one_slider",19,"Monica","rich","lexical","neg_positive","not rich","person","female",0.21,"poor"
12,3389,"one_slider",20,"Stephanie","successful","morphological","neither_pos_nor_ant","neither successful nor unsuccessful","person","female",0.51,"unsuccessful"
12,7945,"one_slider",21,"Veronica","hard-working","lexical","neither_pos_nor_ant","neither hard-working nor lazy","person","female",0.51,"lazy"
12,7135,"one_slider",22,"Sophia","educated","morphological","positive","educated","person","female",1,"uneducated"
12,5496,"one_slider",23,"Laura","fat","lexical","neither_pos_nor_ant","neither fat nor skinny","person","female",0.46,"skinny"
12,7344,"one_slider",24,"Angela","fat","lexical","positive","fat","person","female",1,"skinny"
12,6226,"one_slider",25,"John","rich","lexical","antonym","poor","person","male",0,"poor"
12,3528,"one_slider",26,"Lee","successful","morphological","neg_positive","not successful","person","male",0.15,"unsuccessful"
12,9041,"one_slider",27,"Tom","fat","lexical","neg_antonym","not skinny","person","male",0.95,"skinny"
12,10056,"one_slider",28,"Julia","moral","morphological","neither_pos_nor_ant","neither moral nor immoral","person","female",0.48,"immoral"
12,4612,"one_slider",29,"Lucas","tolerant","morphological","neg_antonym","not intolerant","person","male",0.74,"intolerant"
12,3968,"one_slider",30,"Maya","successful","morphological","positive","successful","person","female",0.98,"unsuccessful"
13,8844,"one_slider",1,"Tom","old","lexical","antonym","young","person","male",0.17,"young"
13,9139,"one_slider",2,"Michelle","friendly","morphological","neither_pos_nor_ant","neither friendly nor unfriendly","person","female",0.48,"unfriendly"
13,18814,"one_slider",3,"Alicia","successful","morphological","neg_positive","not successful","person","female",0.22,"unsuccessful"
13,6227,"one_slider",4,"Stephanie","tolerant","morphological","antonym","intolerant","person","female",0.2,"intolerant"
13,7863,"one_slider",5,"Stephen","rich","lexical","neg_positive","not rich","person","male",0.4,"poor"
13,7442,"one_slider",6,"Kathleen","friendly","morphological","neg_positive","not friendly","person","female",0.3,"unfriendly"
13,8227,"one_slider",7,"Laura","rich","lexical","neither_pos_nor_ant","neither rich nor poor","person","female",0.51,"poor"
13,12918,"one_slider",8,"Gabriel","tall","lexical","neg_positive","not tall","person","male",0.36,"short"
13,6615,"one_slider",9,"Anthony","fat","lexical","neither_pos_nor_ant","neither fat nor skinny","person","male",0.47,"skinny"
13,5592,"one_slider",10,"Eric","old","lexical","neg_positive","not old","person","male",0.52,"young"
13,7031,"one_slider",11,"Michael","brave","lexical","neither_pos_nor_ant","neither brave nor cowardly","person","male",0.52,"cowardly"
13,5777,"one_slider",12,"Cameron","friendly","morphological","neg_antonym","not unfriendly","person","male",0.57,"unfriendly"
13,5915,"one_slider",13,"Alexander","rich","lexical","antonym","poor","person","male",0.2,"poor"
13,4302,"one_slider",14,"Jennifer","successful","morphological","antonym","unsuccessful","person","female",0.17,"unsuccessful"
13,4433,"one_slider",15,"David","friendly","morphological","positive","friendly","person","male",0.8,"unfriendly"
13,3988,"one_slider",16,"Monica","successful","morphological","neither_pos_nor_ant","neither successful nor unsuccessful","person","female",0.49,"unsuccessful"
13,6193,"one_slider",17,"Sophia","brave","lexical","positive","brave","person","female",0.87,"cowardly"
13,4872,"one_slider",18,"Julia","tall","lexical","positive","tall","person","female",0.68,"short"
13,5826,"one_slider",19,"Melinda","hard-working","lexical","positive","hard-working","person","female",0.85,"lazy"
13,8907,"one_slider",20,"Lee","moral","morphological","neg_antonym","not immoral","person","male",0.62,"immoral"
13,6899,"one_slider",21,"Maya","educated","morphological","antonym","uneducated","person","female",0.37,"uneducated"
13,5835,"one_slider",22,"Kim","honest","morphological","neg_positive","not honest","person","female",0.2,"dishonest"
13,7015,"one_slider",23,"Daniel","rich","lexical","positive","rich","person","male",0.71,"poor"
13,4735,"one_slider",24,"Greg","tall","lexical","neg_antonym","not short","person","male",0.55,"short"
13,5970,"one_slider",25,"Angela","successful","morphological","neg_antonym","not unsuccessful","person","female",0.61,"unsuccessful"
13,6997,"one_slider",26,"Lucas","honest","morphological","neither_pos_nor_ant","neither honest nor dishonest","person","male",0.54,"dishonest"
13,5807,"one_slider",27,"John","hard-working","lexical","neg_antonym","not lazy","person","male",0.61,"lazy"
13,4871,"one_slider",28,"William","tolerant","morphological","neg_antonym","not intolerant","person","male",0.59,"intolerant"
13,4943,"one_slider",29,"Veronica","tolerant","morphological","positive","tolerant","person","female",0.9,"intolerant"
13,5564,"one_slider",30,"Claire","fat","lexical","antonym","skinny","person","female",0.12,"skinny"
14,10326,"one_slider",1,"Lucas","hard-working","lexical","positive","hard-working","person","male",0.88,"lazy"
14,7071,"one_slider",2,"Cameron","rich","lexical","antonym","poor","person","male",0.09,"poor"
14,5144,"one_slider",3,"Sophia","honest","morphological","antonym","dishonest","person","female",0.08,"dishonest"
14,5976,"one_slider",4,"Michelle","hard-working","lexical","neg_positive","not hard-working","person","female",0.33,"lazy"
14,6104,"one_slider",5,"Daniel","old","lexical","neither_pos_nor_ant","neither old nor young","person","male",0.51,"young"
14,5856,"one_slider",6,"Jennifer","successful","morphological","neither_pos_nor_ant","neither successful nor unsuccessful","person","female",0.5,"unsuccessful"
14,4527,"one_slider",7,"Melinda","moral","morphological","neither_pos_nor_ant","neither moral nor immoral","person","female",0.5,"immoral"
14,3847,"one_slider",8,"Stephanie","moral","morphological","positive","moral","person","female",0.81,"immoral"
14,4320,"one_slider",9,"Stephen","old","lexical","antonym","young","person","male",0.12,"young"
14,3617,"one_slider",10,"Eric","tolerant","morphological","positive","tolerant","person","male",0.83,"intolerant"
14,3992,"one_slider",11,"Kathleen","old","lexical","positive","old","person","female",0.81,"young"
14,3504,"one_slider",12,"William","brave","lexical","neg_positive","not brave","person","male",0.32,"cowardly"
14,4328,"one_slider",13,"Claire","honest","morphological","neg_positive","not honest","person","female",0.22,"dishonest"
14,5695,"one_slider",14,"Julia","tall","lexical","neg_antonym","not short","person","female",0.65,"short"
14,7392,"one_slider",15,"Maya","educated","morphological","neg_positive","not educated","person","female",0.14,"uneducated"
14,4416,"one_slider",16,"Monica","rich","lexical","neg_antonym","not poor","person","female",0.63,"poor"
14,3824,"one_slider",17,"Anthony","old","lexical","neg_positive","not old","person","male",0.37,"young"
14,3296,"one_slider",18,"David","friendly","morphological","neither_pos_nor_ant","neither friendly nor unfriendly","person","male",0.49,"unfriendly"
14,4456,"one_slider",19,"Angela","successful","morphological","neg_positive","not successful","person","female",0.19,"unsuccessful"
14,4128,"one_slider",20,"Lee","brave","lexical","neg_antonym","not cowardly","person","male",0.6,"cowardly"
14,4320,"one_slider",21,"Tom","rich","lexical","positive","rich","person","male",0.96,"poor"
14,7792,"one_slider",22,"Gabriel","successful","morphological","neg_antonym","not unsuccessful","person","male",0.56,"unsuccessful"
14,3840,"one_slider",23,"Laura","honest","morphological","positive","honest","person","female",0.93,"dishonest"
14,4184,"one_slider",24,"John","friendly","morphological","neg_positive","not friendly","person","male",0.1,"unfriendly"
14,4408,"one_slider",25,"Alexander","fat","lexical","antonym","skinny","person","male",0.05,"skinny"
14,5280,"one_slider",26,"Michael","tolerant","morphological","neg_antonym","not intolerant","person","male",0.54,"intolerant"
14,5072,"one_slider",27,"Kim","friendly","morphological","antonym","unfriendly","person","female",0.05,"unfriendly"
14,3336,"one_slider",28,"Veronica","rich","lexical","neither_pos_nor_ant","neither rich nor poor","person","female",0.49,"poor"
14,3520,"one_slider",29,"Greg","educated","morphological","neither_pos_nor_ant","neither educated nor uneducated","person","male",0.46,"uneducated"
14,3720,"one_slider",30,"Alicia","tall","lexical","positive","tall","person","female",0.95,"short"
15,8983,"one_slider",1,"Angela","honest","morphological","neither_pos_nor_ant","neither honest nor dishonest","person","female",0.47,"dishonest"
15,4719,"one_slider",2,"Anthony","honest","morphological","positive","honest","person","male",0.42,"dishonest"
15,3754,"one_slider",3,"Tom","moral","morphological","positive","moral","person","male",0.76,"immoral"
15,10440,"one_slider",4,"Claire","tolerant","morphological","neg_antonym","not intolerant","person","female",0.79,"intolerant"
15,3975,"one_slider",5,"Michael","fat","lexical","neg_positive","not fat","person","male",0.05,"skinny"
15,4897,"one_slider",6,"William","educated","morphological","neg_positive","not educated","person","male",0.08,"uneducated"
15,3293,"one_slider",7,"Laura","rich","lexical","neither_pos_nor_ant","neither rich nor poor","person","female",0.49,"poor"
15,4070,"one_slider",8,"John","educated","morphological","neg_antonym","not uneducated","person","male",0.07,"uneducated"
15,2970,"one_slider",9,"Melinda","old","lexical","antonym","young","person","female",0.18,"young"
15,3265,"one_slider",10,"David","rich","lexical","positive","rich","person","male",0.92,"poor"
15,2437,"one_slider",11,"Lee","tall","lexical","positive","tall","person","male",0.8,"short"
15,4469,"one_slider",12,"Stephanie","hard-working","lexical","neg_antonym","not lazy","person","female",0.79,"lazy"
15,4057,"one_slider",13,"Gabriel","fat","lexical","neg_antonym","not skinny","person","male",0.78,"skinny"
15,6042,"one_slider",14,"Monica","brave","lexical","positive","brave","person","female",0.88,"cowardly"
15,4023,"one_slider",15,"Alicia","moral","morphological","antonym","immoral","person","female",0.22,"immoral"
15,4294,"one_slider",16,"Greg","brave","lexical","antonym","cowardly","person","male",0.03,"cowardly"
15,2913,"one_slider",17,"Cameron","tall","lexical","antonym","short","person","male",0.09,"short"
15,6933,"one_slider",18,"Daniel","hard-working","lexical","neg_positive","not hard-working","person","male",0.06,"lazy"
15,2313,"one_slider",19,"Maya","successful","morphological","neg_positive","not successful","person","female",0.1,"unsuccessful"
15,3460,"one_slider",20,"Michelle","tolerant","morphological","neither_pos_nor_ant","neither tolerant nor intolerant","person","female",0.49,"intolerant"
15,41121,"one_slider",21,"Julia","successful","morphological","neither_pos_nor_ant","neither successful nor unsuccessful","person","female",0.48,"unsuccessful"
15,3759,"one_slider",22,"Eric","friendly","morphological","antonym","unfriendly","person","male",0.18,"unfriendly"
15,3169,"one_slider",23,"Kathleen","tall","lexical","neg_positive","not tall","person","female",0.14,"short"
15,2448,"one_slider",24,"Sophia","successful","morphological","antonym","unsuccessful","person","female",0.26,"unsuccessful"
15,3514,"one_slider",25,"Alexander","educated","morphological","neither_pos_nor_ant","neither educated nor uneducated","person","male",0.48,"uneducated"
15,4978,"one_slider",26,"Veronica","brave","lexical","neg_positive","not brave","person","female",0.21,"cowardly"
15,3672,"one_slider",27,"Jennifer","fat","lexical","positive","fat","person","female",0.92,"skinny"
15,4250,"one_slider",28,"Lucas","friendly","morphological","neg_antonym","not unfriendly","person","male",0.75,"unfriendly"
15,3825,"one_slider",29,"Kim","tall","lexical","neg_antonym","not short","person","female",0.58,"short"
15,3260,"one_slider",30,"Stephen","old","lexical","neg_antonym","not young","person","male",0.7,"young"
16,5848,"one_slider",1,"Alicia","rich","lexical","positive","rich","person","female",0.6,"poor"
16,6718,"one_slider",2,"Gabriel","tolerant","morphological","neg_positive","not tolerant","person","male",0.08,"intolerant"
16,4232,"one_slider",3,"Tom","fat","lexical","positive","fat","person","male",0.6,"skinny"
16,7070,"one_slider",4,"Stephen","rich","lexical","antonym","poor","person","male",0.09,"poor"
16,6654,"one_slider",5,"Julia","fat","lexical","neither_pos_nor_ant","neither fat nor skinny","person","female",0.42,"skinny"
16,5471,"one_slider",6,"Lee","tolerant","morphological","neither_pos_nor_ant","neither tolerant nor intolerant","person","male",0.48,"intolerant"
16,6070,"one_slider",7,"Michelle","old","lexical","neg_antonym","not young","person","female",0.57,"young"
16,7151,"one_slider",8,"Cameron","educated","morphological","neg_antonym","not uneducated","person","male",0.67,"uneducated"
16,4030,"one_slider",9,"Lucas","brave","lexical","neg_positive","not brave","person","male",0.15,"cowardly"
16,7536,"one_slider",10,"Kathleen","successful","morphological","antonym","unsuccessful","person","female",0.11,"unsuccessful"
16,4448,"one_slider",11,"Daniel","old","lexical","antonym","young","person","male",0.1,"young"
16,5574,"one_slider",12,"Veronica","tall","lexical","neg_positive","not tall","person","female",0.28,"short"
16,4684,"one_slider",13,"Claire","hard-working","lexical","neg_positive","not hard-working","person","female",0.22,"lazy"
16,3257,"one_slider",14,"John","tolerant","morphological","positive","tolerant","person","male",0.92,"intolerant"
16,3183,"one_slider",15,"William","rich","lexical","neither_pos_nor_ant","neither rich nor poor","person","male",0.47,"poor"
16,4173,"one_slider",16,"Greg","successful","morphological","neg_positive","not successful","person","male",0.08,"unsuccessful"
16,4303,"one_slider",17,"Anthony","fat","lexical","neg_positive","not fat","person","male",0.35,"skinny"
16,2837,"one_slider",18,"Angela","old","lexical","positive","old","person","female",0.87,"young"
16,3417,"one_slider",19,"Kim","moral","morphological","neither_pos_nor_ant","neither moral nor immoral","person","female",0.48,"immoral"
16,4309,"one_slider",20,"Stephanie","honest","morphological","neg_antonym","not dishonest","person","female",0.8,"dishonest"
16,3782,"one_slider",21,"Eric","hard-working","lexical","neither_pos_nor_ant","neither hard-working nor lazy","person","male",0.49,"lazy"
16,4591,"one_slider",22,"Michael","rich","lexical","neg_antonym","not poor","person","male",0.51,"poor"
16,4983,"one_slider",23,"Laura","friendly","morphological","positive","friendly","person","female",0.79,"unfriendly"
16,4031,"one_slider",24,"Jennifer","hard-working","lexical","positive","hard-working","person","female",0.84,"lazy"
16,6917,"one_slider",25,"Maya","tall","lexical","neither_pos_nor_ant","neither tall nor short","person","female",0.51,"short"
16,7616,"one_slider",26,"Melinda","educated","morphological","antonym","uneducated","person","female",0.07,"uneducated"
16,4335,"one_slider",27,"Sophia","successful","morphological","neg_antonym","not unsuccessful","person","female",0.16,"unsuccessful"
16,3824,"one_slider",28,"Alexander","successful","morphological","positive","successful","person","male",0.75,"unsuccessful"
16,3956,"one_slider",29,"David","educated","morphological","neg_positive","not educated","person","male",0.2,"uneducated"
16,3153,"one_slider",30,"Monica","brave","lexical","neither_pos_nor_ant","neither brave nor cowardly","person","female",0.45,"cowardly"
17,4642,"one_slider",1,"Alicia","tall","lexical","neg_antonym","not short","person","female",0.54,"short"
17,6851,"one_slider",2,"Michael","rich","lexical","neg_positive","not rich","person","male",0.42,"poor"
17,2813,"one_slider",3,"Laura","rich","lexical","antonym","poor","person","female",0.04,"poor"
17,2081,"one_slider",4,"Maya","old","lexical","positive","old","person","female",0.82,"young"
17,2751,"one_slider",5,"Greg","tall","lexical","positive","tall","person","male",0.92,"short"
17,2766,"one_slider",6,"Daniel","hard-working","lexical","neg_antonym","not lazy","person","male",0.55,"lazy"
17,2071,"one_slider",7,"Eric","moral","morphological","antonym","immoral","person","male",0.27,"immoral"
17,2759,"one_slider",8,"Tom","tall","lexical","neg_positive","not tall","person","male",0.38,"short"
17,4948,"one_slider",9,"Stephanie","tolerant","morphological","neither_pos_nor_ant","neither tolerant nor intolerant","person","female",0.56,"intolerant"
17,8061,"one_slider",10,"Veronica","friendly","morphological","neg_antonym","not unfriendly","person","female",0.49,"unfriendly"
17,2338,"one_slider",11,"Kathleen","moral","morphological","neither_pos_nor_ant","neither moral nor immoral","person","female",0.51,"immoral"
17,4070,"one_slider",12,"Gabriel","honest","morphological","neg_antonym","not dishonest","person","male",0.51,"dishonest"
17,2235,"one_slider",13,"Julia","fat","lexical","neither_pos_nor_ant","neither fat nor skinny","person","female",0.5,"skinny"
17,2221,"one_slider",14,"Jennifer","hard-working","lexical","neg_positive","not hard-working","person","female",0.35,"lazy"
17,1995,"one_slider",15,"David","brave","lexical","neither_pos_nor_ant","neither brave nor cowardly","person","male",0.47,"cowardly"
17,1581,"one_slider",16,"Stephen","rich","lexical","neither_pos_nor_ant","neither rich nor poor","person","male",0.49,"poor"
17,2019,"one_slider",17,"Monica","friendly","morphological","positive","friendly","person","female",0.78,"unfriendly"
17,2643,"one_slider",18,"Angela","educated","morphological","neg_antonym","not uneducated","person","female",0.45,"uneducated"
17,2638,"one_slider",19,"Lee","moral","morphological","positive","moral","person","male",0.71,"immoral"
17,2398,"one_slider",20,"Claire","old","lexical","neg_antonym","not young","person","female",0.52,"young"
17,108584,"one_slider",21,"Anthony","rich","lexical","positive","rich","person","male",0.92,"poor"
17,3686,"one_slider",22,"Alexander","tolerant","morphological","neg_positive","not tolerant","person","male",0.32,"intolerant"
17,2080,"one_slider",23,"Lucas","successful","morphological","antonym","unsuccessful","person","male",0.31,"unsuccessful"
17,2291,"one_slider",24,"Michelle","old","lexical","neither_pos_nor_ant","neither old nor young","person","female",0.49,"young"
17,2267,"one_slider",25,"William","moral","morphological","neg_antonym","not immoral","person","male",0.48,"immoral"
17,2103,"one_slider",26,"Cameron","hard-working","lexical","neither_pos_nor_ant","neither hard-working nor lazy","person","male",0.55,"lazy"
17,2239,"one_slider",27,"Sophia","educated","morphological","antonym","uneducated","person","female",0.2,"uneducated"
17,2016,"one_slider",28,"Melinda","tall","lexical","antonym","short","person","female",0.23,"short"
17,3965,"one_slider",29,"John","rich","lexical","neg_antonym","not poor","person","male",0.5,"poor"
17,4505,"one_slider",30,"Kim","moral","morphological","neg_positive","not moral","person","female",0.24,"immoral"
18,10084,"one_slider",1,"Michael","moral","morphological","neither_pos_nor_ant","neither moral nor immoral","person","male",0.51,"immoral"
18,8051,"one_slider",2,"Eric","moral","morphological","antonym","immoral","person","male",0.2,"immoral"
18,3829,"one_slider",3,"Sophia","old","lexical","positive","old","person","female",0.85,"young"
18,5918,"one_slider",4,"Anthony","educated","morphological","antonym","uneducated","person","male",0.22,"uneducated"
18,6749,"one_slider",5,"Julia","brave","lexical","neg_positive","not brave","person","female",0.34,"cowardly"
18,7268,"one_slider",6,"Lucas","rich","lexical","neg_antonym","not poor","person","male",0.54,"poor"
18,5358,"one_slider",7,"Stephanie","friendly","morphological","antonym","unfriendly","person","female",0.2,"unfriendly"
18,3357,"one_slider",8,"Gabriel","rich","lexical","antonym","poor","person","male",0.23,"poor"
18,9455,"one_slider",9,"Melinda","old","lexical","neither_pos_nor_ant","neither old nor young","person","female",0.45,"young"
18,5406,"one_slider",10,"Lee","tall","lexical","antonym","short","person","male",0.28,"short"
18,5166,"one_slider",11,"Cameron","friendly","morphological","neg_antonym","not unfriendly","person","male",0.5,"unfriendly"
18,5812,"one_slider",12,"Stephen","moral","morphological","positive","moral","person","male",0.74,"immoral"
18,4849,"one_slider",13,"Jennifer","successful","morphological","neither_pos_nor_ant","neither successful nor unsuccessful","person","female",0.55,"unsuccessful"
18,4838,"one_slider",14,"Veronica","educated","morphological","neg_antonym","not uneducated","person","female",0.6,"uneducated"
18,3299,"one_slider",15,"Alicia","friendly","morphological","neither_pos_nor_ant","neither friendly nor unfriendly","person","female",0.51,"unfriendly"
18,2837,"one_slider",16,"Claire","tolerant","morphological","antonym","intolerant","person","female",0.27,"intolerant"
18,5526,"one_slider",17,"Kim","hard-working","lexical","neg_antonym","not lazy","person","female",0.52,"lazy"
18,5623,"one_slider",18,"John","successful","morphological","positive","successful","person","male",0.69,"unsuccessful"
18,4878,"one_slider",19,"Laura","honest","morphological","antonym","dishonest","person","female",0.21,"dishonest"
18,4428,"one_slider",20,"Alexander","hard-working","lexical","neither_pos_nor_ant","neither hard-working nor lazy","person","male",0.53,"lazy"
18,4988,"one_slider",21,"Monica","fat","lexical","neg_antonym","not skinny","person","female",0.54,"skinny"
18,3391,"one_slider",22,"Michelle","tall","lexical","neg_antonym","not short","person","female",0.57,"short"
18,5591,"one_slider",23,"William","educated","morphological","positive","educated","person","male",0.7,"uneducated"
18,3204,"one_slider",24,"Angela","friendly","morphological","positive","friendly","person","female",0.79,"unfriendly"
18,2565,"one_slider",25,"Tom","rich","lexical","positive","rich","person","male",0.83,"poor"
18,3659,"one_slider",26,"Greg","moral","morphological","neg_positive","not moral","person","male",0.27,"immoral"
18,5874,"one_slider",27,"Daniel","fat","lexical","antonym","skinny","person","male",0.26,"skinny"
18,4069,"one_slider",28,"Maya","educated","morphological","neither_pos_nor_ant","neither educated nor uneducated","person","female",0.51,"uneducated"
18,3674,"one_slider",29,"David","tolerant","morphological","neg_antonym","not intolerant","person","male",0.66,"intolerant"
18,3565,"one_slider",30,"Kathleen","moral","morphological","neg_antonym","not immoral","person","female",0.64,"immoral"
19,6891,"one_slider",1,"Maya","moral","morphological","neg_positive","not moral","person","female",0.31,"immoral"
19,4603,"one_slider",2,"Veronica","friendly","morphological","neither_pos_nor_ant","neither friendly nor unfriendly","person","female",0.51,"unfriendly"
19,3565,"one_slider",3,"Alexander","brave","lexical","antonym","cowardly","person","male",0.14,"cowardly"
19,5021,"one_slider",4,"Gabriel","tall","lexical","positive","tall","person","male",0.8,"short"
19,3077,"one_slider",5,"Kathleen","old","lexical","positive","old","person","female",0.77,"young"
19,3000,"one_slider",6,"Cameron","hard-working","lexical","positive","hard-working","person","male",0.89,"lazy"
19,3713,"one_slider",7,"Lucas","friendly","morphological","antonym","unfriendly","person","male",0.1,"unfriendly"
19,96852,"one_slider",8,"John","hard-working","lexical","neg_positive","not hard-working","person","male",0.4,"lazy"
19,3932,"one_slider",9,"Claire","friendly","morphological","positive","friendly","person","female",0.75,"unfriendly"
19,7779,"one_slider",10,"Melinda","educated","morphological","neither_pos_nor_ant","neither educated nor uneducated","person","female",0.45,"uneducated"
19,4825,"one_slider",11,"Michelle","tolerant","morphological","antonym","intolerant","person","female",0.07,"intolerant"
19,7617,"one_slider",12,"William","hard-working","lexical","neg_antonym","not lazy","person","male",0.68,"lazy"
19,3329,"one_slider",13,"Michael","educated","morphological","neg_positive","not educated","person","male",0.12,"uneducated"
19,3932,"one_slider",14,"Anthony","rich","lexical","antonym","poor","person","male",0.07,"poor"
19,2922,"one_slider",15,"Stephanie","rich","lexical","neither_pos_nor_ant","neither rich nor poor","person","female",0.5,"poor"
19,4593,"one_slider",16,"Tom","tall","lexical","neg_positive","not tall","person","male",0.27,"short"
19,4045,"one_slider",17,"Laura","brave","lexical","neither_pos_nor_ant","neither brave nor cowardly","person","female",0.43,"cowardly"
19,2575,"one_slider",18,"Alicia","fat","lexical","antonym","skinny","person","female",0.11,"skinny"
19,3426,"one_slider",19,"Monica","hard-working","lexical","neither_pos_nor_ant","neither hard-working nor lazy","person","female",0.53,"lazy"
19,5820,"one_slider",20,"Sophia","tolerant","morphological","neg_antonym","not intolerant","person","female",0.63,"intolerant"
19,2981,"one_slider",21,"Stephen","successful","morphological","neither_pos_nor_ant","neither successful nor unsuccessful","person","male",0.46,"unsuccessful"
19,6434,"one_slider",22,"Eric","fat","lexical","neg_positive","not fat","person","male",0.39,"skinny"
19,3280,"one_slider",23,"Julia","honest","morphological","positive","honest","person","female",0.83,"dishonest"
19,4033,"one_slider",24,"Jennifer","moral","morphological","antonym","immoral","person","female",0.14,"immoral"
19,3325,"one_slider",25,"David","brave","lexical","neg_antonym","not cowardly","person","male",0.64,"cowardly"
19,4345,"one_slider",26,"Daniel","rich","lexical","neg_positive","not rich","person","male",0.37,"poor"
19,4310,"one_slider",27,"Greg","educated","morphological","neg_antonym","not uneducated","person","male",0.59,"uneducated"
19,3068,"one_slider",28,"Angela","tall","lexical","neg_antonym","not short","person","female",0.68,"short"
19,5803,"one_slider",29,"Lee","successful","morphological","neg_antonym","not unsuccessful","person","male",0.67,"unsuccessful"
19,10450,"one_slider",30,"Kim","successful","morphological","neg_positive","not successful","person","female",0.24,"unsuccessful"
20,9012,"one_slider",1,"John","brave","lexical","positive","brave","person","male",0.69,"cowardly"
20,11382,"one_slider",2,"Greg","tall","lexical","neg_antonym","not short","person","male",0.56,"short"
20,6577,"one_slider",3,"Alexander","educated","morphological","neg_positive","not educated","person","male",0.34,"uneducated"
20,11370,"one_slider",4,"Melinda","fat","lexical","neither_pos_nor_ant","neither fat nor skinny","person","female",0.5,"skinny"
20,7765,"one_slider",5,"Kim","friendly","morphological","antonym","unfriendly","person","female",0.2,"unfriendly"
20,11873,"one_slider",6,"Eric","rich","lexical","neg_antonym","not poor","person","male",0.55,"poor"
20,7173,"one_slider",7,"Claire","rich","lexical","neither_pos_nor_ant","neither rich nor poor","person","female",0.48,"poor"
20,7800,"one_slider",8,"Lucas","moral","morphological","neither_pos_nor_ant","neither moral nor immoral","person","male",0.47,"immoral"
20,5603,"one_slider",9,"David","tall","lexical","positive","tall","person","male",0.66,"short"
20,5403,"one_slider",10,"Stephen","tall","lexical","neither_pos_nor_ant","neither tall nor short","person","male",0.49,"short"
20,5077,"one_slider",11,"Cameron","educated","morphological","antonym","uneducated","person","male",0.3,"uneducated"
20,6957,"one_slider",12,"Alicia","hard-working","lexical","neither_pos_nor_ant","neither hard-working nor lazy","person","female",0.53,"lazy"
20,7486,"one_slider",13,"Angela","brave","lexical","neg_antonym","not cowardly","person","female",0.64,"cowardly"
20,6237,"one_slider",14,"Laura","old","lexical","antonym","young","person","female",0.33,"young"
20,4331,"one_slider",15,"Daniel","rich","lexical","positive","rich","person","male",0.68,"poor"
20,7397,"one_slider",16,"Sophia","fat","lexical","positive","fat","person","female",0.66,"skinny"
20,5392,"one_slider",17,"Kathleen","tall","lexical","antonym","short","person","female",0.34,"short"
20,4560,"one_slider",18,"Michelle","fat","lexical","antonym","skinny","person","female",0.29,"skinny"
20,9539,"one_slider",19,"Maya","hard-working","lexical","neg_positive","not hard-working","person","female",0.35,"lazy"
20,5229,"one_slider",20,"Veronica","fat","lexical","neg_antonym","not skinny","person","female",0.66,"skinny"
20,5621,"one_slider",21,"Jennifer","hard-working","lexical","positive","hard-working","person","female",0.7,"lazy"
20,5434,"one_slider",22,"Anthony","brave","lexical","neither_pos_nor_ant","neither brave nor cowardly","person","male",0.47,"cowardly"
20,8336,"one_slider",23,"Julia","tolerant","morphological","neither_pos_nor_ant","neither tolerant nor intolerant","person","female",0.5,"intolerant"
20,7550,"one_slider",24,"Gabriel","successful","morphological","neither_pos_nor_ant","neither successful nor unsuccessful","person","male",0.5,"unsuccessful"
20,8322,"one_slider",25,"William","friendly","morphological","neither_pos_nor_ant","neither friendly nor unfriendly","person","male",0.49,"unfriendly"
20,7610,"one_slider",26,"Tom","brave","lexical","neg_positive","not brave","person","male",0.31,"cowardly"
20,8040,"one_slider",27,"Lee","educated","morphological","neither_pos_nor_ant","neither educated nor uneducated","person","male",0.48,"uneducated"
20,4872,"one_slider",28,"Monica","tolerant","morphological","antonym","intolerant","person","female",0.32,"intolerant"
20,7138,"one_slider",29,"Stephanie","hard-working","lexical","neg_antonym","not lazy","person","female",0.69,"lazy"
20,8519,"one_slider",30,"Michael","educated","morphological","neg_antonym","not uneducated","person","male",0.59,"uneducated"
21,10874,"one_slider",1,"David","successful","morphological","antonym","unsuccessful","person","male",0,"unsuccessful"
21,10874,"one_slider",2,"Lucas","friendly","morphological","neg_antonym","not unfriendly","person","male",0.78,"unfriendly"
21,7699,"one_slider",3,"Cameron","rich","lexical","neg_positive","not rich","person","male",0.1,"poor"
21,12077,"one_slider",4,"Monica","old","lexical","neither_pos_nor_ant","neither old nor young","person","female",0.53,"young"
21,7919,"one_slider",5,"Julia","moral","morphological","neither_pos_nor_ant","neither moral nor immoral","person","female",0.43,"immoral"
21,13283,"one_slider",6,"Laura","brave","lexical","neither_pos_nor_ant","neither brave nor cowardly","person","female",0.4,"cowardly"
21,4023,"one_slider",7,"Tom","friendly","morphological","positive","friendly","person","male",0.91,"unfriendly"
21,5401,"one_slider",8,"Melinda","tall","lexical","neg_positive","not tall","person","female",0.13,"short"
21,7646,"one_slider",9,"William","educated","morphological","neither_pos_nor_ant","neither educated nor uneducated","person","male",0.39,"uneducated"
21,5482,"one_slider",10,"Lee","educated","morphological","neg_positive","not educated","person","male",0.19,"uneducated"
21,4107,"one_slider",11,"Stephen","friendly","morphological","neg_positive","not friendly","person","male",0.17,"unfriendly"
21,4211,"one_slider",12,"Alicia","old","lexical","antonym","young","person","female",0.12,"young"
21,6107,"one_slider",13,"Anthony","brave","lexical","neg_positive","not brave","person","male",0.09,"cowardly"
21,5944,"one_slider",14,"Michael","rich","lexical","neither_pos_nor_ant","neither rich nor poor","person","male",0.56,"poor"
21,4719,"one_slider",15,"Claire","successful","morphological","neg_positive","not successful","person","female",0.13,"unsuccessful"
21,8985,"one_slider",16,"Greg","old","lexical","neg_positive","not old","person","male",0.24,"young"
21,4924,"one_slider",17,"Alexander","tall","lexical","positive","tall","person","male",0.85,"short"
21,37655,"one_slider",18,"Jennifer","fat","lexical","positive","fat","person","female",0.86,"skinny"
21,3895,"one_slider",19,"Kathleen","successful","morphological","neg_antonym","not unsuccessful","person","female",0.06,"unsuccessful"
21,7808,"one_slider",20,"Angela","tall","lexical","neither_pos_nor_ant","neither tall nor short","person","female",0.37,"short"
21,4427,"one_slider",21,"Eric","hard-working","lexical","positive","hard-working","person","male",0.88,"lazy"
21,7062,"one_slider",22,"Maya","brave","lexical","antonym","cowardly","person","female",0.04,"cowardly"
21,3755,"one_slider",23,"Michelle","educated","morphological","positive","educated","person","female",0.92,"uneducated"
21,4020,"one_slider",24,"Kim","tolerant","morphological","neg_positive","not tolerant","person","female",0.12,"intolerant"
21,4155,"one_slider",25,"Gabriel","educated","morphological","antonym","uneducated","person","male",0.06,"uneducated"
21,5997,"one_slider",26,"John","honest","morphological","antonym","dishonest","person","male",0.11,"dishonest"
21,8003,"one_slider",27,"Sophia","hard-working","lexical","neg_antonym","not lazy","person","female",0.74,"lazy"
21,4685,"one_slider",28,"Veronica","friendly","morphological","antonym","unfriendly","person","female",0.09,"unfriendly"
21,4492,"one_slider",29,"Daniel","tolerant","morphological","positive","tolerant","person","male",0.92,"intolerant"
21,5754,"one_slider",30,"Stephanie","honest","morphological","neg_antonym","not dishonest","person","female",0.76,"dishonest"
22,8789,"one_slider",1,"Stephen","tolerant","morphological","antonym","intolerant","person","male",0.01,"intolerant"
22,11853,"one_slider",2,"Sophia","educated","morphological","neg_antonym","not uneducated","person","female",0.92,"uneducated"
22,4783,"one_slider",3,"David","brave","lexical","neg_positive","not brave","person","male",0.05,"cowardly"
22,4800,"one_slider",4,"Tom","friendly","morphological","neg_positive","not friendly","person","male",0,"unfriendly"
22,4414,"one_slider",5,"Kathleen","successful","morphological","neg_antonym","not unsuccessful","person","female",0.02,"unsuccessful"
22,6970,"one_slider",6,"Stephanie","fat","lexical","positive","fat","person","female",0.43,"skinny"
22,15806,"one_slider",7,"Kim","tall","lexical","antonym","short","person","female",0.04,"short"
22,6167,"one_slider",8,"Claire","friendly","morphological","positive","friendly","person","female",0.94,"unfriendly"
22,2912,"one_slider",9,"Laura","moral","morphological","antonym","immoral","person","female",0.98,"immoral"
22,2862,"one_slider",10,"Cameron","successful","morphological","antonym","unsuccessful","person","male",0,"unsuccessful"
22,3075,"one_slider",11,"William","educated","morphological","neg_positive","not educated","person","male",0.01,"uneducated"
22,3143,"one_slider",12,"Julia","moral","morphological","neg_positive","not moral","person","female",0,"immoral"
22,2960,"one_slider",13,"Maya","honest","morphological","neg_positive","not honest","person","female",0.01,"dishonest"
22,2623,"one_slider",14,"Michelle","moral","morphological","neg_antonym","not immoral","person","female",0.02,"immoral"
22,5972,"one_slider",15,"Anthony","hard-working","lexical","positive","hard-working","person","male",1,"lazy"
22,4342,"one_slider",16,"Angela","rich","lexical","neither_pos_nor_ant","neither rich nor poor","person","female",0.51,"poor"
22,4718,"one_slider",17,"Lee","rich","lexical","antonym","poor","person","male",0.19,"poor"
22,3200,"one_slider",18,"Jennifer","successful","morphological","neither_pos_nor_ant","neither successful nor unsuccessful","person","female",0.47,"unsuccessful"
22,3449,"one_slider",19,"Monica","moral","morphological","neither_pos_nor_ant","neither moral nor immoral","person","female",0.48,"immoral"
22,6373,"one_slider",20,"Alicia","tall","lexical","positive","tall","person","female",1,"short"
22,2961,"one_slider",21,"Lucas","fat","lexical","antonym","skinny","person","male",0.04,"skinny"
22,3611,"one_slider",22,"Greg","old","lexical","neg_antonym","not young","person","male",0.84,"young"
22,6079,"one_slider",23,"Alexander","rich","lexical","positive","rich","person","male",0.98,"poor"
22,5800,"one_slider",24,"Veronica","fat","lexical","neither_pos_nor_ant","neither fat nor skinny","person","female",0.5,"skinny"
22,5489,"one_slider",25,"Melinda","brave","lexical","neither_pos_nor_ant","neither brave nor cowardly","person","female",0.52,"cowardly"
22,3912,"one_slider",26,"Eric","tolerant","morphological","neg_positive","not tolerant","person","male",0.07,"intolerant"
22,4630,"one_slider",27,"John","brave","lexical","neg_antonym","not cowardly","person","male",0.96,"cowardly"
22,8691,"one_slider",28,"Michael","fat","lexical","neg_positive","not fat","person","male",0.25,"skinny"
22,3906,"one_slider",29,"Gabriel","old","lexical","neg_positive","not old","person","male",0.21,"young"
22,2879,"one_slider",30,"Daniel","friendly","morphological","antonym","unfriendly","person","male",0.16,"unfriendly"
23,8177,"one_slider",1,"Eric","fat","lexical","neg_positive","not fat","person","male",0.41,"skinny"
23,6199,"one_slider",2,"Kathleen","fat","lexical","positive","fat","person","female",0.92,"skinny"
23,10203,"one_slider",3,"Maya","hard-working","lexical","neither_pos_nor_ant","neither hard-working nor lazy","person","female",0.53,"lazy"
23,5503,"one_slider",4,"Michelle","rich","lexical","neither_pos_nor_ant","neither rich nor poor","person","female",0.53,"poor"
23,5442,"one_slider",5,"Julia","successful","morphological","positive","successful","person","female",0.78,"unsuccessful"
23,9755,"one_slider",6,"Sophia","tolerant","morphological","positive","tolerant","person","female",0.71,"intolerant"
23,3950,"one_slider",7,"Stephen","friendly","morphological","positive","friendly","person","male",0.72,"unfriendly"
23,4509,"one_slider",8,"Veronica","friendly","morphological","neither_pos_nor_ant","neither friendly nor unfriendly","person","female",0.51,"unfriendly"
23,3477,"one_slider",9,"John","old","lexical","positive","old","person","male",0.79,"young"
23,3453,"one_slider",10,"Gabriel","brave","lexical","neg_positive","not brave","person","male",0.28,"cowardly"
23,5659,"one_slider",11,"Melinda","tolerant","morphological","neg_antonym","not intolerant","person","female",0.7,"intolerant"
23,5727,"one_slider",12,"Lucas","rich","lexical","neg_antonym","not poor","person","male",0.71,"poor"
23,4241,"one_slider",13,"Greg","hard-working","lexical","antonym","lazy","person","male",0.18,"lazy"
23,2802,"one_slider",14,"Laura","rich","lexical","antonym","poor","person","female",0.21,"poor"
23,4218,"one_slider",15,"Monica","honest","morphological","neg_antonym","not dishonest","person","female",0.74,"dishonest"
23,2991,"one_slider",16,"Anthony","moral","morphological","neg_antonym","not immoral","person","male",0.74,"immoral"
23,3229,"one_slider",17,"Angela","brave","lexical","neither_pos_nor_ant","neither brave nor cowardly","person","female",0.51,"cowardly"
23,4972,"one_slider",18,"Tom","fat","lexical","neither_pos_nor_ant","neither fat nor skinny","person","male",0.49,"skinny"
23,15909,"one_slider",19,"Stephanie","honest","morphological","antonym","dishonest","person","female",0.21,"dishonest"
23,3939,"one_slider",20,"Kim","old","lexical","neg_antonym","not young","person","female",0.75,"young"
23,3409,"one_slider",21,"Jennifer","successful","morphological","neither_pos_nor_ant","neither successful nor unsuccessful","person","female",0.51,"unsuccessful"
23,3622,"one_slider",22,"Alicia","brave","lexical","antonym","cowardly","person","female",0.26,"cowardly"
23,4008,"one_slider",23,"William","hard-working","lexical","neg_positive","not hard-working","person","male",0.28,"lazy"
23,3406,"one_slider",24,"Claire","old","lexical","neither_pos_nor_ant","neither old nor young","person","female",0.5,"young"
23,4063,"one_slider",25,"Daniel","tall","lexical","positive","tall","person","male",0.74,"short"
23,5827,"one_slider",26,"David","fat","lexical","neg_antonym","not skinny","person","male",0.77,"skinny"
23,3802,"one_slider",27,"Michael","successful","morphological","neg_antonym","not unsuccessful","person","male",0.69,"unsuccessful"
23,4062,"one_slider",28,"Lee","tolerant","morphological","neg_positive","not tolerant","person","male",0.22,"intolerant"
23,4183,"one_slider",29,"Alexander","friendly","morphological","neg_positive","not friendly","person","male",0.31,"unfriendly"
23,3950,"one_slider",30,"Cameron","old","lexical","antonym","young","person","male",0.14,"young"
24,21833,"one_slider",1,"Angela","honest","morphological","antonym","dishonest","person","female",0.1,"dishonest"
24,10599,"one_slider",2,"Lucas","honest","morphological","neg_antonym","not dishonest","person","male",0.92,"dishonest"
24,7382,"one_slider",3,"Kim","old","lexical","neg_antonym","not young","person","female",0.71,"young"
24,5241,"one_slider",4,"William","successful","morphological","positive","successful","person","male",0.93,"unsuccessful"
24,4304,"one_slider",5,"Laura","honest","morphological","positive","honest","person","female",0.94,"dishonest"
24,7774,"one_slider",6,"Eric","hard-working","lexical","neither_pos_nor_ant","neither hard-working nor lazy","person","male",0.52,"lazy"
24,5102,"one_slider",7,"Julia","brave","lexical","antonym","cowardly","person","female",0.05,"cowardly"
24,5095,"one_slider",8,"John","rich","lexical","neg_positive","not rich","person","male",0.36,"poor"
24,6653,"one_slider",9,"Alexander","friendly","morphological","positive","friendly","person","male",0.95,"unfriendly"
24,8297,"one_slider",10,"Claire","tolerant","morphological","antonym","intolerant","person","female",0.06,"intolerant"
24,5115,"one_slider",11,"Monica","tall","lexical","neg_positive","not tall","person","female",0.26,"short"
24,5820,"one_slider",12,"Stephanie","hard-working","lexical","antonym","lazy","person","female",0.04,"lazy"
24,4750,"one_slider",13,"Michael","rich","lexical","neg_antonym","not poor","person","male",0.7,"poor"
24,21664,"one_slider",14,"Anthony","tolerant","morphological","neg_antonym","not intolerant","person","male",0.73,"intolerant"
24,8898,"one_slider",15,"David","successful","morphological","neither_pos_nor_ant","neither successful nor unsuccessful","person","male",0.51,"unsuccessful"
24,4428,"one_slider",16,"Sophia","fat","lexical","neither_pos_nor_ant","neither fat nor skinny","person","female",0.5,"skinny"
24,5172,"one_slider",17,"Kathleen","successful","morphological","antonym","unsuccessful","person","female",0.06,"unsuccessful"
24,4295,"one_slider",18,"Jennifer","tall","lexical","neither_pos_nor_ant","neither tall nor short","person","female",0.53,"short"
24,6922,"one_slider",19,"Daniel","educated","morphological","neither_pos_nor_ant","neither educated nor uneducated","person","male",0.56,"uneducated"
24,5016,"one_slider",20,"Alicia","fat","lexical","antonym","skinny","person","female",0.04,"skinny"
24,4608,"one_slider",21,"Veronica","moral","morphological","positive","moral","person","female",0.95,"immoral"
24,5501,"one_slider",22,"Tom","hard-working","lexical","neg_antonym","not lazy","person","male",0.8,"lazy"
24,6200,"one_slider",23,"Melinda","tall","lexical","neg_antonym","not short","person","female",0.64,"short"
24,7172,"one_slider",24,"Lee","honest","morphological","neg_positive","not honest","person","male",0.11,"dishonest"
24,4993,"one_slider",25,"Stephen","educated","morphological","antonym","uneducated","person","male",0.13,"uneducated"
24,6935,"one_slider",26,"Maya","fat","lexical","neg_positive","not fat","person","female",0.24,"skinny"
24,4500,"one_slider",27,"Michelle","old","lexical","positive","old","person","female",0.91,"young"
24,4803,"one_slider",28,"Cameron","hard-working","lexical","positive","hard-working","person","male",0.95,"lazy"
24,4828,"one_slider",29,"Greg","educated","morphological","positive","educated","person","male",0.92,"uneducated"
24,4233,"one_slider",30,"Gabriel","rich","lexical","positive","rich","person","male",0.97,"poor"
25,8831,"one_slider",1,"Michelle","educated","morphological","neither_pos_nor_ant","neither educated nor uneducated","person","female",0.5,"uneducated"
25,3297,"one_slider",2,"Kathleen","successful","morphological","neg_antonym","not unsuccessful","person","female",0.14,"unsuccessful"
25,4172,"one_slider",3,"Monica","brave","lexical","neither_pos_nor_ant","neither brave nor cowardly","person","female",0.44,"cowardly"
25,3398,"one_slider",4,"Cameron","friendly","morphological","positive","friendly","person","male",0.87,"unfriendly"
25,2342,"one_slider",5,"John","honest","morphological","neither_pos_nor_ant","neither honest nor dishonest","person","male",0.47,"dishonest"
25,2267,"one_slider",6,"Eric","tolerant","morphological","neither_pos_nor_ant","neither tolerant nor intolerant","person","male",0.49,"intolerant"
25,3346,"one_slider",7,"Julia","honest","morphological","neg_antonym","not dishonest","person","female",0.76,"dishonest"
25,2479,"one_slider",8,"Tom","friendly","morphological","neg_antonym","not unfriendly","person","male",0.82,"unfriendly"
25,2657,"one_slider",9,"Michael","hard-working","lexical","positive","hard-working","person","male",0.95,"lazy"
25,2288,"one_slider",10,"Lee","successful","morphological","positive","successful","person","male",0.94,"unsuccessful"
25,2619,"one_slider",11,"Daniel","fat","lexical","antonym","skinny","person","male",0.19,"skinny"
25,4815,"one_slider",12,"Claire","tolerant","morphological","neg_antonym","not intolerant","person","female",0.17,"intolerant"
25,2013,"one_slider",13,"Kim","moral","morphological","neither_pos_nor_ant","neither moral nor immoral","person","female",0.5,"immoral"
25,2741,"one_slider",14,"Stephanie","old","lexical","neither_pos_nor_ant","neither old nor young","person","female",0.47,"young"
25,2619,"one_slider",15,"Melinda","old","lexical","antonym","young","person","female",0.18,"young"
25,2707,"one_slider",16,"Alexander","tall","lexical","neg_positive","not tall","person","male",0.35,"short"
25,2565,"one_slider",17,"Laura","fat","lexical","neither_pos_nor_ant","neither fat nor skinny","person","female",0.53,"skinny"
25,3086,"one_slider",18,"Sophia","brave","lexical","neg_antonym","not cowardly","person","female",0.89,"cowardly"
25,2466,"one_slider",19,"Jennifer","hard-working","lexical","neither_pos_nor_ant","neither hard-working nor lazy","person","female",0.53,"lazy"
25,2986,"one_slider",20,"Maya","rich","lexical","neither_pos_nor_ant","neither rich nor poor","person","female",0.48,"poor"
25,2848,"one_slider",21,"Lucas","moral","morphological","neg_positive","not moral","person","male",0.15,"immoral"
25,2397,"one_slider",22,"Anthony","honest","morphological","neg_positive","not honest","person","male",0.15,"dishonest"
25,2182,"one_slider",23,"Angela","tolerant","morphological","positive","tolerant","person","female",0.79,"intolerant"
25,1721,"one_slider",24,"Stephen","tall","lexical","positive","tall","person","male",0.88,"short"
25,2143,"one_slider",25,"Alicia","tolerant","morphological","antonym","intolerant","person","female",0.12,"intolerant"
25,2572,"one_slider",26,"Gabriel","educated","morphological","neg_positive","not educated","person","male",0.18,"uneducated"
25,2028,"one_slider",27,"William","rich","lexical","neg_positive","not rich","person","male",0.25,"poor"
25,2396,"one_slider",28,"Veronica","tolerant","morphological","neg_positive","not tolerant","person","female",0.45,"intolerant"
25,2666,"one_slider",29,"David","old","lexical","neg_positive","not old","person","male",0.34,"young"
25,2234,"one_slider",30,"Greg","successful","morphological","neg_positive","not successful","person","male",0.21,"unsuccessful"
26,5303,"one_slider",1,"Sophia","successful","morphological","positive","successful","person","female",0.86,"unsuccessful"
26,3935,"one_slider",2,"Cameron","friendly","morphological","antonym","unfriendly","person","male",0.1,"unfriendly"
26,2205,"one_slider",3,"Veronica","educated","morphological","positive","educated","person","female",0.94,"uneducated"
26,3871,"one_slider",4,"Julia","rich","lexical","neither_pos_nor_ant","neither rich nor poor","person","female",0.51,"poor"
26,3371,"one_slider",5,"Daniel","honest","morphological","antonym","dishonest","person","male",0.16,"dishonest"
26,2607,"one_slider",6,"Angela","successful","morphological","neg_antonym","not unsuccessful","person","female",0.85,"unsuccessful"
26,3084,"one_slider",7,"Michelle","educated","morphological","neg_positive","not educated","person","female",0.22,"uneducated"
26,2141,"one_slider",8,"Monica","friendly","morphological","neither_pos_nor_ant","neither friendly nor unfriendly","person","female",0.51,"unfriendly"
26,2802,"one_slider",9,"Stephanie","old","lexical","neg_antonym","not young","person","female",0.8,"young"
26,2518,"one_slider",10,"Claire","moral","morphological","positive","moral","person","female",0.85,"immoral"
26,2947,"one_slider",11,"Jennifer","tall","lexical","neg_antonym","not short","person","female",0.8,"short"
26,2237,"one_slider",12,"Maya","tall","lexical","positive","tall","person","female",0.82,"short"
26,2401,"one_slider",13,"Stephen","tolerant","morphological","positive","tolerant","person","male",0.84,"intolerant"
26,2657,"one_slider",14,"Kathleen","honest","morphological","neither_pos_nor_ant","neither honest nor dishonest","person","female",0.48,"dishonest"
26,3222,"one_slider",15,"Laura","moral","morphological","antonym","immoral","person","female",0.15,"immoral"
26,6306,"one_slider",16,"John","educated","morphological","neither_pos_nor_ant","neither educated nor uneducated","person","male",0.53,"uneducated"
26,3208,"one_slider",17,"Alicia","fat","lexical","antonym","skinny","person","female",0.2,"skinny"
26,2361,"one_slider",18,"Melinda","brave","lexical","positive","brave","person","female",0.8,"cowardly"
26,1971,"one_slider",19,"Anthony","brave","lexical","neither_pos_nor_ant","neither brave nor cowardly","person","male",0.51,"cowardly"
26,3017,"one_slider",20,"Lucas","old","lexical","neg_positive","not old","person","male",0.2,"young"
26,3728,"one_slider",21,"William","hard-working","lexical","neg_positive","not hard-working","person","male",0.06,"lazy"
26,2929,"one_slider",22,"Greg","old","lexical","antonym","young","person","male",0.09,"young"
26,5857,"one_slider",23,"Lee","hard-working","lexical","neither_pos_nor_ant","neither hard-working nor lazy","person","male",0.56,"lazy"
26,2517,"one_slider",24,"Eric","educated","morphological","neg_antonym","not uneducated","person","male",0.18,"uneducated"
26,4799,"one_slider",25,"Gabriel","brave","lexical","neg_antonym","not cowardly","person","male",0.81,"cowardly"
26,2810,"one_slider",26,"Michael","old","lexical","positive","old","person","male",0.9,"young"
26,4260,"one_slider",27,"Alexander","fat","lexical","neither_pos_nor_ant","neither fat nor skinny","person","male",0.49,"skinny"
26,6111,"one_slider",28,"Tom","hard-working","lexical","neg_antonym","not lazy","person","male",0.86,"lazy"
26,3430,"one_slider",29,"David","successful","morphological","neg_positive","not successful","person","male",0.19,"unsuccessful"
26,2938,"one_slider",30,"Kim","rich","lexical","neg_positive","not rich","person","female",0.16,"poor"
27,6295,"one_slider",1,"Michelle","brave","lexical","neg_positive","not brave","person","female",0.24,"cowardly"
27,2372,"one_slider",2,"Melinda","successful","morphological","positive","successful","person","female",0.91,"unsuccessful"
27,3918,"one_slider",3,"Cameron","successful","morphological","neg_positive","not successful","person","male",0.29,"unsuccessful"
27,2966,"one_slider",4,"Anthony","tall","lexical","antonym","short","person","male",0.15,"short"
27,4943,"one_slider",5,"Laura","old","lexical","neg_antonym","not young","person","female",0.63,"young"
27,1375,"one_slider",6,"John","old","lexical","antonym","young","person","male",0.52,"young"
27,1207,"one_slider",7,"Sophia","hard-working","lexical","neg_antonym","not lazy","person","female",0.4,"lazy"
27,1192,"one_slider",8,"Kim","friendly","morphological","neg_positive","not friendly","person","female",0.61,"unfriendly"
27,1354,"one_slider",9,"Daniel","honest","morphological","antonym","dishonest","person","male",0.46,"dishonest"
27,1198,"one_slider",10,"Stephen","rich","lexical","neg_antonym","not poor","person","male",0.53,"poor"
27,1623,"one_slider",11,"Alicia","fat","lexical","neg_antonym","not skinny","person","female",0.38,"skinny"
27,1431,"one_slider",12,"Stephanie","tolerant","morphological","antonym","intolerant","person","female",0.56,"intolerant"
27,1182,"one_slider",13,"Lucas","honest","morphological","neither_pos_nor_ant","neither honest nor dishonest","person","male",0.46,"dishonest"
27,1325,"one_slider",14,"Michael","tall","lexical","positive","tall","person","male",0.3,"short"
27,2174,"one_slider",15,"Lee","successful","morphological","antonym","unsuccessful","person","male",0.25,"unsuccessful"
27,1119,"one_slider",16,"Jennifer","moral","morphological","positive","moral","person","female",0.56,"immoral"
27,1551,"one_slider",17,"David","old","lexical","positive","old","person","male",0.37,"young"
27,1149,"one_slider",18,"Gabriel","rich","lexical","neg_positive","not rich","person","male",0.52,"poor"
27,1439,"one_slider",19,"Monica","honest","morphological","positive","honest","person","female",0.54,"dishonest"
27,1046,"one_slider",20,"Maya","moral","morphological","antonym","immoral","person","female",0.36,"immoral"
27,1318,"one_slider",21,"Claire","tolerant","morphological","neg_positive","not tolerant","person","female",0.64,"intolerant"
27,1134,"one_slider",22,"Alexander","moral","morphological","neg_antonym","not immoral","person","male",0.58,"immoral"
27,1375,"one_slider",23,"Eric","fat","lexical","neither_pos_nor_ant","neither fat nor skinny","person","male",0.27,"skinny"
27,1087,"one_slider",24,"William","rich","lexical","neither_pos_nor_ant","neither rich nor poor","person","male",0.65,"poor"
27,1095,"one_slider",25,"Angela","educated","morphological","neg_positive","not educated","person","female",0.46,"uneducated"
27,1062,"one_slider",26,"Tom","hard-working","lexical","neg_positive","not hard-working","person","male",0.35,"lazy"
27,1039,"one_slider",27,"Greg","educated","morphological","positive","educated","person","male",0.47,"uneducated"
27,1135,"one_slider",28,"Veronica","friendly","morphological","neg_antonym","not unfriendly","person","female",0.59,"unfriendly"
27,1912,"one_slider",29,"Julia","friendly","morphological","neither_pos_nor_ant","neither friendly nor unfriendly","person","female",0.48,"unfriendly"
27,2174,"one_slider",30,"Kathleen","rich","lexical","antonym","poor","person","female",0.62,"poor"
28,7317,"one_slider",1,"Daniel","tolerant","morphological","positive","tolerant","person","male",0.51,"intolerant"
28,5185,"one_slider",2,"Tom","tolerant","morphological","neg_positive","not tolerant","person","male",0.43,"intolerant"
28,3750,"one_slider",3,"Kim","educated","morphological","neither_pos_nor_ant","neither educated nor uneducated","person","female",0.48,"uneducated"
28,4931,"one_slider",4,"William","honest","morphological","antonym","dishonest","person","male",0.47,"dishonest"
28,2625,"one_slider",5,"Stephanie","successful","morphological","positive","successful","person","female",0.5,"unsuccessful"
28,2953,"one_slider",6,"Claire","hard-working","lexical","antonym","lazy","person","female",0.5,"lazy"
28,3324,"one_slider",7,"Eric","honest","morphological","positive","honest","person","male",0.54,"dishonest"
28,4286,"one_slider",8,"Michelle","moral","morphological","positive","moral","person","female",0.55,"immoral"
28,4089,"one_slider",9,"Lucas","friendly","morphological","antonym","unfriendly","person","male",0.42,"unfriendly"
28,6213,"one_slider",10,"Maya","old","lexical","neg_positive","not old","person","female",0.48,"young"
28,2843,"one_slider",11,"David","honest","morphological","neither_pos_nor_ant","neither honest nor dishonest","person","male",0.48,"dishonest"
28,3068,"one_slider",12,"John","educated","morphological","neg_positive","not educated","person","male",0.53,"uneducated"
