"workerid","rt","trial_type","trial_num","name","lexant","positive","endpoint_high","morphant","adjective","referent","adjective_type","antonym_type","gender","endpoint_low","response"
0,14851,"one_slider",1,"Alicia","sad","happy","the most happy<br>person in the world","unhappy","not sad","person","neg_lexant","lexant","female","the most sad<br>person in the world",0.6
0,6695,"one_slider",2,"Laura","crazy","rational","the most rational<br>person in the world","irrational","crazy","person","lexant","lexant","female","the most crazy<br>person in the world",0.32
0,4607,"one_slider",3,"Lee","rude","polite","the most polite<br>person in the world","impolite","polite","person","positive","lexant","male","the most rude<br>person in the world",0.57
0,6062,"one_slider",4,"Eric","resentful","forgiving","the most forgiving<br>person in the world","unforgiving","forgiving","person","positive","lexant","male","the most resentful<br>person in the world",0.73
0,5808,"one_slider",5,"Alexander","flaky","reliable","the most reliable<br>person in the world","unreliable","flaky","person","lexant","lexant","male","the most flaky<br>person in the world",0.32
0,6823,"one_slider",6,"Angela","mean","friendly","the most friendly<br>person in the world","unfriendly","not mean","person","neg_lexant","lexant","female","the most mean<br>person in the world",0.38
0,3739,"one_slider",7,"Maya","fake","sincere","the most sincere<br>person in the world","insincere","sincere","person","positive","lexant","female","the most fake<br>person in the world",0.62
0,5865,"one_slider",8,"Daniel","cold","affectionate","the most affectionate<br>person in the world","unaffectionate","not affectionate","person","neg_positive","lexant","male","the most cold<br>person in the world",0.21
0,3750,"one_slider",9,"David","lazy","ambitious","the most ambitious<br>person in the world","unambitious","not lazy","person","neg_lexant","lexant","male","the most lazy<br>person in the world",0.57
0,6613,"one_slider",10,"Jennifer","stupid","intelligent","the most intelligent<br>person in the world","unintelligent","stupid","person","lexant","lexant","female","the most stupid<br>person in the world",0.19
0,4690,"one_slider",11,"Tom","childish","mature","the most mature<br>person in the world","immature","not mature","person","neg_positive","lexant","male","the most childish<br>person in the world",0.23
0,7914,"one_slider",12,"Lucas","traitorous","patriotic","the most patriotic<br>person in the world","unpatriotic","not patriotic","person","neg_positive","lexant","male","the most traitorous<br>person in the world",0.15
1,3466,"one_slider",1,"Lucas","flaky","reliable","the most reliable<br>person in the world","unreliable","flaky","person","lexant","lexant","male","the most flaky<br>person in the world",0.35
1,1675,"one_slider",2,"Tom","cold","affectionate","the most affectionate<br>person in the world","unaffectionate","cold","person","lexant","lexant","male","the most cold<br>person in the world",0.35
1,1619,"one_slider",3,"Alicia","mean","friendly","the most friendly<br>person in the world","unfriendly","friendly","person","positive","lexant","female","the most mean<br>person in the world",0.6
1,1743,"one_slider",4,"Stephanie","lazy","ambitious","the most ambitious<br>person in the world","unambitious","not ambitious","person","neg_positive","lexant","female","the most lazy<br>person in the world",0.35
1,2351,"one_slider",5,"Angela","sad","happy","the most happy<br>person in the world","unhappy","not sad","person","neg_lexant","lexant","female","the most sad<br>person in the world",0.61
1,1493,"one_slider",6,"David","childish","mature","the most mature<br>person in the world","immature","mature","person","positive","lexant","male","the most childish<br>person in the world",0.6
1,1918,"one_slider",7,"Lee","boring","interesting","the most interesting<br>person in the world","uninteresting","not boring","person","neg_lexant","lexant","male","the most boring<br>person in the world",0.56
1,2328,"one_slider",8,"Monica","fake","sincere","the most sincere<br>person in the world","insincere","fake","person","lexant","lexant","female","the most fake<br>person in the world",0.32
1,16465,"one_slider",9,"Eric","stupid","intelligent","the most intelligent<br>person in the world","unintelligent","not stupid","person","neg_lexant","lexant","male","the most stupid<br>person in the world",0.55
1,2775,"one_slider",10,"Jennifer","wasteful","resourceful","the most resourceful<br>person in the world","unresourceful","not resourceful","person","neg_positive","lexant","female","the most wasteful<br>person in the world",0.38
1,2123,"one_slider",11,"Julia","bigoted","tolerant","the most tolerant<br>person in the world","intolerant","not tolerant","person","neg_positive","lexant","female","the most bigoted<br>person in the world",0.35
1,1832,"one_slider",12,"Veronica","cruel","kind","the most kind<br>person in the world","unkind","kind","person","positive","lexant","female","the most cruel<br>person in the world",0.55
2,9802,"one_slider",1,"Veronica","sad","happy","the most happy<br>person in the world","unhappy","not sad","person","neg_lexant","lexant","female","the most sad<br>person in the world",0.71
2,8915,"one_slider",2,"Gabriel","traitorous","patriotic","the most patriotic<br>person in the world","unpatriotic","not patriotic","person","neg_positive","lexant","male","the most traitorous<br>person in the world",0.48
2,4927,"one_slider",3,"Greg","bigoted","tolerant","the most tolerant<br>person in the world","intolerant","tolerant","person","positive","lexant","male","the most bigoted<br>person in the world",0.66
2,4871,"one_slider",4,"Lee","fake","sincere","the most sincere<br>person in the world","insincere","sincere","person","positive","lexant","male","the most fake<br>person in the world",0.78
2,6710,"one_slider",5,"Maya","childish","mature","the most mature<br>person in the world","immature","not childish","person","neg_lexant","lexant","female","the most childish<br>person in the world",0.68
2,5079,"one_slider",6,"Michael","stupid","intelligent","the most intelligent<br>person in the world","unintelligent","not intelligent","person","neg_positive","lexant","male","the most stupid<br>person in the world",0.33
2,4130,"one_slider",7,"Lucas","flaky","reliable","the most reliable<br>person in the world","unreliable","flaky","person","lexant","lexant","male","the most flaky<br>person in the world",0.18
2,4391,"one_slider",8,"Kim","stingy","generous","the most generous<br>person in the world","ungenerous","generous","person","positive","lexant","female","the most stingy<br>person in the world",0.66
2,5182,"one_slider",9,"Sophia","wasteful","resourceful","the most resourceful<br>person in the world","unresourceful","wasteful","person","lexant","lexant","female","the most wasteful<br>person in the world",0.29
2,7021,"one_slider",10,"John","lazy","ambitious","the most ambitious<br>person in the world","unambitious","not lazy","person","neg_lexant","lexant","male","the most lazy<br>person in the world",0.76
2,3330,"one_slider",11,"Michelle","cruel","kind","the most kind<br>person in the world","unkind","not kind","person","neg_positive","lexant","female","the most cruel<br>person in the world",0.32
2,5935,"one_slider",12,"Monica","ugly","attractive","the most attractive<br>person in the world","unattractive","ugly","person","lexant","lexant","female","the most ugly<br>person in the world",0.24
3,11088,"one_slider",1,"Stephanie","sad","happy","the most happy<br>person in the world","unhappy","sad","person","lexant","lexant","female","the most sad<br>person in the world",0.19
3,11691,"one_slider",2,"David","bigoted","tolerant","the most tolerant<br>person in the world","intolerant","not tolerant","person","neg_positive","lexant","male","the most bigoted<br>person in the world",0.21
3,6083,"one_slider",3,"Claire","stupid","intelligent","the most intelligent<br>person in the world","unintelligent","stupid","person","lexant","lexant","female","the most stupid<br>person in the world",0.27
3,7200,"one_slider",4,"Laura","ignorant","educated","the most educated<br>person in the world","uneducated","not educated","person","neg_positive","lexant","female","the most ignorant<br>person in the world",0.39
3,8133,"one_slider",5,"Jennifer","resentful","forgiving","the most forgiving<br>person in the world","unforgiving","forgiving","person","positive","lexant","female","the most resentful<br>person in the world",0.75
3,4229,"one_slider",6,"Cameron","lazy","ambitious","the most ambitious<br>person in the world","unambitious","lazy","person","lexant","lexant","male","the most lazy<br>person in the world",0.21
3,8185,"one_slider",7,"Veronica","childish","mature","the most mature<br>person in the world","immature","not childish","person","neg_lexant","lexant","female","the most childish<br>person in the world",0.57
3,5160,"one_slider",8,"Sophia","boring","interesting","the most interesting<br>person in the world","uninteresting","interesting","person","positive","lexant","female","the most boring<br>person in the world",0.68
3,6538,"one_slider",9,"Michael","deceitful","honest","the most honest<br>person in the world","dishonest","not deceitful","person","neg_lexant","lexant","male","the most deceitful<br>person in the world",0.82
3,8265,"one_slider",10,"William","cruel","kind","the most kind<br>person in the world","unkind","not kind","person","neg_positive","lexant","male","the most cruel<br>person in the world",0.32
3,6198,"one_slider",11,"Kathleen","rude","polite","the most polite<br>person in the world","impolite","not rude","person","neg_lexant","lexant","female","the most rude<br>person in the world",0.63
3,5469,"one_slider",12,"Julia","stingy","generous","the most generous<br>person in the world","ungenerous","generous","person","positive","lexant","female","the most stingy<br>person in the world",0.78
4,6389,"one_slider",1,"Veronica","deceitful","honest","the most honest<br>person in the world","dishonest","deceitful","person","lexant","lexant","female","the most deceitful<br>person in the world",0.24
4,3415,"one_slider",2,"Cameron","cold","affectionate","the most affectionate<br>person in the world","unaffectionate","affectionate","person","positive","lexant","male","the most cold<br>person in the world",0.76
4,4264,"one_slider",3,"John","flaky","reliable","the most reliable<br>person in the world","unreliable","flaky","person","lexant","lexant","male","the most flaky<br>person in the world",0.13
4,3760,"one_slider",4,"William","sad","happy","the most happy<br>person in the world","unhappy","happy","person","positive","lexant","male","the most sad<br>person in the world",0.78
4,10143,"one_slider",5,"Kim","wasteful","resourceful","the most resourceful<br>person in the world","unresourceful","not wasteful","person","neg_lexant","lexant","female","the most wasteful<br>person in the world",0.75
4,9863,"one_slider",6,"Angela","rude","polite","the most polite<br>person in the world","impolite","not rude","person","neg_lexant","lexant","female","the most rude<br>person in the world",0.77
4,5488,"one_slider",7,"Monica","crazy","rational","the most rational<br>person in the world","irrational","not rational","person","neg_positive","lexant","female","the most crazy<br>person in the world",0.69
4,5431,"one_slider",8,"Daniel","fake","sincere","the most sincere<br>person in the world","insincere","not fake","person","neg_lexant","lexant","male","the most fake<br>person in the world",0.77
4,6439,"one_slider",9,"Jennifer","resentful","forgiving","the most forgiving<br>person in the world","unforgiving","resentful","person","lexant","lexant","female","the most resentful<br>person in the world",0.19
4,3295,"one_slider",10,"Laura","childish","mature","the most mature<br>person in the world","immature","not mature","person","neg_positive","lexant","female","the most childish<br>person in the world",0.17
4,5144,"one_slider",11,"Alicia","ugly","attractive","the most attractive<br>person in the world","unattractive","not attractive","person","neg_positive","lexant","female","the most ugly<br>person in the world",0.18
4,11111,"one_slider",12,"Michelle","mean","friendly","the most friendly<br>person in the world","unfriendly","friendly","person","positive","lexant","female","the most mean<br>person in the world",0.78
5,12284,"one_slider",1,"Alexander","mean","friendly","the most friendly<br>person in the world","unfriendly","not mean","person","neg_lexant","lexant","male","the most mean<br>person in the world",0.61
5,4373,"one_slider",2,"Claire","rude","polite","the most polite<br>person in the world","impolite","not rude","person","neg_lexant","lexant","female","the most rude<br>person in the world",0.69
5,6707,"one_slider",3,"Kim","flaky","reliable","the most reliable<br>person in the world","unreliable","flaky","person","lexant","lexant","female","the most flaky<br>person in the world",0.31
5,4687,"one_slider",4,"Veronica","ugly","attractive","the most attractive<br>person in the world","unattractive","ugly","person","lexant","lexant","female","the most ugly<br>person in the world",0.32
5,3820,"one_slider",5,"Jennifer","stingy","generous","the most generous<br>person in the world","ungenerous","not generous","person","neg_positive","lexant","female","the most stingy<br>person in the world",0.29
5,3620,"one_slider",6,"Alicia","crazy","rational","the most rational<br>person in the world","irrational","rational","person","positive","lexant","female","the most crazy<br>person in the world",0.7
5,4868,"one_slider",7,"Daniel","sad","happy","the most happy<br>person in the world","unhappy","sad","person","lexant","lexant","male","the most sad<br>person in the world",0.32
5,3280,"one_slider",8,"Michael","bigoted","tolerant","the most tolerant<br>person in the world","intolerant","tolerant","person","positive","lexant","male","the most bigoted<br>person in the world",0.72
5,3290,"one_slider",9,"Anthony","traitorous","patriotic","the most patriotic<br>person in the world","unpatriotic","patriotic","person","positive","lexant","male","the most traitorous<br>person in the world",0.75
5,4863,"one_slider",10,"Julia","stupid","intelligent","the most intelligent<br>person in the world","unintelligent","not intelligent","person","neg_positive","lexant","female","the most stupid<br>person in the world",0.35
5,5087,"one_slider",11,"Greg","deceitful","honest","the most honest<br>person in the world","dishonest","not honest","person","neg_positive","lexant","male","the most deceitful<br>person in the world",0.34
5,4277,"one_slider",12,"Maya","lazy","ambitious","the most ambitious<br>person in the world","unambitious","not lazy","person","neg_lexant","lexant","female","the most lazy<br>person in the world",0.75
6,14027,"one_slider",1,"Veronica","traitorous","patriotic","the most patriotic<br>person in the world","unpatriotic","traitorous","person","lexant","lexant","female","the most traitorous<br>person in the world",0.15
6,5860,"one_slider",2,"Michael","bigoted","tolerant","the most tolerant<br>person in the world","intolerant","not bigoted","person","neg_lexant","lexant","male","the most bigoted<br>person in the world",0.87
6,6232,"one_slider",3,"Michelle","sad","happy","the most happy<br>person in the world","unhappy","sad","person","lexant","lexant","female","the most sad<br>person in the world",0.38
6,6115,"one_slider",4,"John","deceitful","honest","the most honest<br>person in the world","dishonest","not honest","person","neg_positive","lexant","male","the most deceitful<br>person in the world",0.33
6,4533,"one_slider",5,"Kim","boring","interesting","the most interesting<br>person in the world","uninteresting","interesting","person","positive","lexant","female","the most boring<br>person in the world",0.62
6,3825,"one_slider",6,"Angela","lazy","ambitious","the most ambitious<br>person in the world","unambitious","not ambitious","person","neg_positive","lexant","female","the most lazy<br>person in the world",0.29
6,4920,"one_slider",7,"Eric","wasteful","resourceful","the most resourceful<br>person in the world","unresourceful","not wasteful","person","neg_lexant","lexant","male","the most wasteful<br>person in the world",0.77
6,4183,"one_slider",8,"Gabriel","stingy","generous","the most generous<br>person in the world","ungenerous","not generous","person","neg_positive","lexant","male","the most stingy<br>person in the world",0.32
6,7166,"one_slider",9,"Stephen","resentful","forgiving","the most forgiving<br>person in the world","unforgiving","forgiving","person","positive","lexant","male","the most resentful<br>person in the world",0.72
6,5388,"one_slider",10,"Alexander","stupid","intelligent","the most intelligent<br>person in the world","unintelligent","not stupid","person","neg_lexant","lexant","male","the most stupid<br>person in the world",0.61
6,2909,"one_slider",11,"Daniel","fake","sincere","the most sincere<br>person in the world","insincere","sincere","person","positive","lexant","male","the most fake<br>person in the world",0.66
6,4770,"one_slider",12,"Lucas","ugly","attractive","the most attractive<br>person in the world","unattractive","ugly","person","lexant","lexant","male","the most ugly<br>person in the world",0.32
7,4596,"one_slider",1,"Michael","ugly","attractive","the most attractive<br>person in the world","unattractive","not ugly","person","neg_lexant","lexant","male","the most ugly<br>person in the world",0.61
7,5680,"one_slider",2,"Laura","stingy","generous","the most generous<br>person in the world","ungenerous","not stingy","person","neg_lexant","lexant","female","the most stingy<br>person in the world",0.54
7,3939,"one_slider",3,"Alicia","traitorous","patriotic","the most patriotic<br>person in the world","unpatriotic","patriotic","person","positive","lexant","female","the most traitorous<br>person in the world",0.62
7,4038,"one_slider",4,"Maya","fake","sincere","the most sincere<br>person in the world","insincere","not sincere","person","neg_positive","lexant","female","the most fake<br>person in the world",0.22
7,3789,"one_slider",5,"John","stupid","intelligent","the most intelligent<br>person in the world","unintelligent","stupid","person","lexant","lexant","male","the most stupid<br>person in the world",0.24
7,2883,"one_slider",6,"Lee","deceitful","honest","the most honest<br>person in the world","dishonest","honest","person","positive","lexant","male","the most deceitful<br>person in the world",0.64
7,2832,"one_slider",7,"Monica","cruel","kind","the most kind<br>person in the world","unkind","cruel","person","lexant","lexant","female","the most cruel<br>person in the world",0.2
7,11842,"one_slider",8,"Kim","boring","interesting","the most interesting<br>person in the world","uninteresting","not boring","person","neg_lexant","lexant","female","the most boring<br>person in the world",0.76
7,13922,"one_slider",9,"Daniel","ignorant","educated","the most educated<br>person in the world","uneducated","ignorant","person","lexant","lexant","male","the most ignorant<br>person in the world",0.32
7,12034,"one_slider",10,"Angela","cold","affectionate","the most affectionate<br>person in the world","unaffectionate","not affectionate","person","neg_positive","lexant","female","the most cold<br>person in the world",0.27
7,6017,"one_slider",11,"Stephen","lazy","ambitious","the most ambitious<br>person in the world","unambitious","not ambitious","person","neg_positive","lexant","male","the most lazy<br>person in the world",0.34
7,2665,"one_slider",12,"David","bigoted","tolerant","the most tolerant<br>person in the world","intolerant","tolerant","person","positive","lexant","male","the most bigoted<br>person in the world",0.6
8,21030,"one_slider",1,"Stephen","flaky","reliable","the most reliable<br>person in the world","unreliable","flaky","person","lexant","lexant","male","the most flaky<br>person in the world",0.48
8,72863,"one_slider",2,"Monica","bigoted","tolerant","the most tolerant<br>person in the world","intolerant","not bigoted","person","neg_lexant","lexant","female","the most bigoted<br>person in the world",0.46
8,9199,"one_slider",3,"Kathleen","stingy","generous","the most generous<br>person in the world","ungenerous","generous","person","positive","lexant","female","the most stingy<br>person in the world",0.49
8,6425,"one_slider",4,"David","mean","friendly","the most friendly<br>person in the world","unfriendly","not friendly","person","neg_positive","lexant","male","the most mean<br>person in the world",0.44
8,11303,"one_slider",5,"Angela","cold","affectionate","the most affectionate<br>person in the world","unaffectionate","not cold","person","neg_lexant","lexant","female","the most cold<br>person in the world",0.48
8,25787,"one_slider",6,"Stephanie","rude","polite","the most polite<br>person in the world","impolite","not polite","person","neg_positive","lexant","female","the most rude<br>person in the world",0.47
8,3933,"one_slider",7,"Cameron","sad","happy","the most happy<br>person in the world","unhappy","happy","person","positive","lexant","male","the most sad<br>person in the world",0.49
8,9520,"one_slider",8,"Greg","ignorant","educated","the most educated<br>person in the world","uneducated","not ignorant","person","neg_lexant","lexant","male","the most ignorant<br>person in the world",0.47
8,4584,"one_slider",9,"Michelle","wasteful","resourceful","the most resourceful<br>person in the world","unresourceful","wasteful","person","lexant","lexant","female","the most wasteful<br>person in the world",0.47
8,3224,"one_slider",10,"Laura","stupid","intelligent","the most intelligent<br>person in the world","unintelligent","stupid","person","lexant","lexant","female","the most stupid<br>person in the world",0.48
8,2816,"one_slider",11,"Maya","ugly","attractive","the most attractive<br>person in the world","unattractive","attractive","person","positive","lexant","female","the most ugly<br>person in the world",0.46
8,2896,"one_slider",12,"Michael","traitorous","patriotic","the most patriotic<br>person in the world","unpatriotic","not patriotic","person","neg_positive","lexant","male","the most traitorous<br>person in the world",0.48
9,5165,"one_slider",1,"Claire","deceitful","honest","the most honest<br>person in the world","dishonest","not honest","person","neg_positive","lexant","female","the most deceitful<br>person in the world",0.26
9,2311,"one_slider",2,"Anthony","crazy","rational","the most rational<br>person in the world","irrational","rational","person","positive","lexant","male","the most crazy<br>person in the world",0.73
9,4141,"one_slider",3,"Melinda","ugly","attractive","the most attractive<br>person in the world","unattractive","not ugly","person","neg_lexant","lexant","female","the most ugly<br>person in the world",0.64
9,2184,"one_slider",4,"Eric","cruel","kind","the most kind<br>person in the world","unkind","cruel","person","lexant","lexant","male","the most cruel<br>person in the world",0.34
9,3065,"one_slider",5,"Cameron","ignorant","educated","the most educated<br>person in the world","uneducated","not educated","person","neg_positive","lexant","male","the most ignorant<br>person in the world",0.25
9,2297,"one_slider",6,"Greg","childish","mature","the most mature<br>person in the world","immature","childish","person","lexant","lexant","male","the most childish<br>person in the world",0.28
9,3395,"one_slider",7,"Angela","lazy","ambitious","the most ambitious<br>person in the world","unambitious","not lazy","person","neg_lexant","lexant","female","the most lazy<br>person in the world",0.76
9,2092,"one_slider",8,"Tom","mean","friendly","the most friendly<br>person in the world","unfriendly","mean","person","lexant","lexant","male","the most mean<br>person in the world",0.31
9,2392,"one_slider",9,"Alexander","fake","sincere","the most sincere<br>person in the world","insincere","sincere","person","positive","lexant","male","the most fake<br>person in the world",0.72
9,2841,"one_slider",10,"Sophia","cold","affectionate","the most affectionate<br>person in the world","unaffectionate","not affectionate","person","neg_positive","lexant","female","the most cold<br>person in the world",0.32
9,2515,"one_slider",11,"Maya","boring","interesting","the most interesting<br>person in the world","uninteresting","not boring","person","neg_lexant","lexant","female","the most boring<br>person in the world",0.74
9,2521,"one_slider",12,"Kathleen","traitorous","patriotic","the most patriotic<br>person in the world","unpatriotic","patriotic","person","positive","lexant","female","the most traitorous<br>person in the world",0.83
10,8333,"one_slider",1,"Anthony","rude","polite","the most polite<br>person in the world","impolite","not rude","person","neg_lexant","lexant","male","the most rude<br>person in the world",0.34
10,2534,"one_slider",2,"Lee","stupid","intelligent","the most intelligent<br>person in the world","unintelligent","intelligent","person","positive","lexant","male","the most stupid<br>person in the world",0.51
10,1717,"one_slider",3,"Melinda","flaky","reliable","the most reliable<br>person in the world","unreliable","flaky","person","lexant","lexant","female","the most flaky<br>person in the world",0.51
10,1924,"one_slider",4,"Jennifer","wasteful","resourceful","the most resourceful<br>person in the world","unresourceful","wasteful","person","lexant","lexant","female","the most wasteful<br>person in the world",0.53
10,3300,"one_slider",5,"Kim","stingy","generous","the most generous<br>person in the world","ungenerous","not stingy","person","neg_lexant","lexant","female","the most stingy<br>person in the world",0.68
10,1362,"one_slider",6,"Sophia","fake","sincere","the most sincere<br>person in the world","insincere","sincere","person","positive","lexant","female","the most fake<br>person in the world",0.44
10,1758,"one_slider",7,"Laura","traitorous","patriotic","the most patriotic<br>person in the world","unpatriotic","traitorous","person","lexant","lexant","female","the most traitorous<br>person in the world",0.52
10,2603,"one_slider",8,"David","childish","mature","the most mature<br>person in the world","immature","mature","person","positive","lexant","male","the most childish<br>person in the world",0.34
10,2289,"one_slider",9,"Michelle","boring","interesting","the most interesting<br>person in the world","uninteresting","not interesting","person","neg_positive","lexant","female","the most boring<br>person in the world",0.5
10,2109,"one_slider",10,"Stephen","ignorant","educated","the most educated<br>person in the world","uneducated","not ignorant","person","neg_lexant","lexant","male","the most ignorant<br>person in the world",0.39
10,2586,"one_slider",11,"Stephanie","sad","happy","the most happy<br>person in the world","unhappy","not happy","person","neg_positive","lexant","female","the most sad<br>person in the world",0.25
10,2269,"one_slider",12,"Claire","resentful","forgiving","the most forgiving<br>person in the world","unforgiving","not forgiving","person","neg_positive","lexant","female","the most resentful<br>person in the world",0.43
11,8982,"one_slider",1,"Tom","ignorant","educated","the most educated<br>person in the world","uneducated","ignorant","person","lexant","lexant","male","the most ignorant<br>person in the world",0.25
11,4850,"one_slider",2,"Eric","flaky","reliable","the most reliable<br>person in the world","unreliable","not reliable","person","neg_positive","lexant","male","the most flaky<br>person in the world",0.17
11,3770,"one_slider",3,"Sophia","wasteful","resourceful","the most resourceful<br>person in the world","unresourceful","not wasteful","person","neg_lexant","lexant","female","the most wasteful<br>person in the world",0.8
11,5596,"one_slider",4,"Lee","resentful","forgiving","the most forgiving<br>person in the world","unforgiving","not resentful","person","neg_lexant","lexant","male","the most resentful<br>person in the world",0.89
11,4019,"one_slider",5,"Alicia","stupid","intelligent","the most intelligent<br>person in the world","unintelligent","stupid","person","lexant","lexant","female","the most stupid<br>person in the world",0.15
11,5138,"one_slider",6,"Claire","traitorous","patriotic","the most patriotic<br>person in the world","unpatriotic","not patriotic","person","neg_positive","lexant","female","the most traitorous<br>person in the world",0.12
11,7641,"one_slider",7,"Lucas","bigoted","tolerant","the most tolerant<br>person in the world","intolerant","tolerant","person","positive","lexant","male","the most bigoted<br>person in the world",0.93
11,7055,"one_slider",8,"David","rude","polite","the most polite<br>person in the world","impolite","polite","person","positive","lexant","male","the most rude<br>person in the world",0.89
11,3802,"one_slider",9,"William","ugly","attractive","the most attractive<br>person in the world","unattractive","ugly","person","lexant","lexant","male","the most ugly<br>person in the world",0.08
11,3314,"one_slider",10,"John","crazy","rational","the most rational<br>person in the world","irrational","rational","person","positive","lexant","male","the most crazy<br>person in the world",0.85
11,4337,"one_slider",11,"Michelle","lazy","ambitious","the most ambitious<br>person in the world","unambitious","not lazy","person","neg_lexant","lexant","female","the most lazy<br>person in the world",0.82
11,3310,"one_slider",12,"Stephanie","deceitful","honest","the most honest<br>person in the world","dishonest","not honest","person","neg_positive","lexant","female","the most deceitful<br>person in the world",0.11
12,10841,"one_slider",1,"Alexander","boring","interesting","the most interesting<br>person in the world","uninteresting","boring","person","lexant","lexant","male","the most boring<br>person in the world",0.23
12,5573,"one_slider",2,"Tom","stingy","generous","the most generous<br>person in the world","ungenerous","generous","person","positive","lexant","male","the most stingy<br>person in the world",0.7
12,7848,"one_slider",3,"Greg","sad","happy","the most happy<br>person in the world","unhappy","not happy","person","neg_positive","lexant","male","the most sad<br>person in the world",0.31
12,7635,"one_slider",4,"Angela","bigoted","tolerant","the most tolerant<br>person in the world","intolerant","not bigoted","person","neg_lexant","lexant","female","the most bigoted<br>person in the world",0.73
12,6359,"one_slider",5,"Kathleen","resentful","forgiving","the most forgiving<br>person in the world","unforgiving","not forgiving","person","neg_positive","lexant","female","the most resentful<br>person in the world",0.23
12,3696,"one_slider",6,"Julia","childish","mature","the most mature<br>person in the world","immature","not mature","person","neg_positive","lexant","female","the most childish<br>person in the world",0.24
12,4926,"one_slider",7,"Lee","wasteful","resourceful","the most resourceful<br>person in the world","unresourceful","wasteful","person","lexant","lexant","male","the most wasteful<br>person in the world",0.3
12,4547,"one_slider",8,"Kim","rude","polite","the most polite<br>person in the world","impolite","not rude","person","neg_lexant","lexant","female","the most rude<br>person in the world",0.72
12,4790,"one_slider",9,"Melinda","cruel","kind","the most kind<br>person in the world","unkind","not cruel","person","neg_lexant","lexant","female","the most cruel<br>person in the world",0.72
12,5301,"one_slider",10,"Alicia","ignorant","educated","the most educated<br>person in the world","uneducated","educated","person","positive","lexant","female","the most ignorant<br>person in the world",0.73
12,3787,"one_slider",11,"Cameron","crazy","rational","the most rational<br>person in the world","irrational","crazy","person","lexant","lexant","male","the most crazy<br>person in the world",0.26
12,4923,"one_slider",12,"Stephen","fake","sincere","the most sincere<br>person in the world","insincere","sincere","person","positive","lexant","male","the most fake<br>person in the world",0.72
13,13761,"one_slider",1,"Daniel","rude","polite","the most polite<br>person in the world","impolite","polite","person","positive","lexant","male","the most rude<br>person in the world",0.81
13,7262,"one_slider",2,"Michael","stingy","generous","the most generous<br>person in the world","ungenerous","not generous","person","neg_positive","lexant","male","the most stingy<br>person in the world",0.09
13,5694,"one_slider",3,"Kim","sad","happy","the most happy<br>person in the world","unhappy","sad","person","lexant","lexant","female","the most sad<br>person in the world",0.13
13,5496,"one_slider",4,"William","ugly","attractive","the most attractive<br>person in the world","unattractive","ugly","person","lexant","lexant","male","the most ugly<br>person in the world",0.19
13,5478,"one_slider",5,"Angela","ignorant","educated","the most educated<br>person in the world","uneducated","educated","person","positive","lexant","female","the most ignorant<br>person in the world",0.67
13,5439,"one_slider",6,"Stephanie","mean","friendly","the most friendly<br>person in the world","unfriendly","friendly","person","positive","lexant","female","the most mean<br>person in the world",0.77
13,10584,"one_slider",7,"Michelle","fake","sincere","the most sincere<br>person in the world","insincere","not sincere","person","neg_positive","lexant","female","the most fake<br>person in the world",0.15
13,5254,"one_slider",8,"Laura","traitorous","patriotic","the most patriotic<br>person in the world","unpatriotic","not traitorous","person","neg_lexant","lexant","female","the most traitorous<br>person in the world",0.81
13,6359,"one_slider",9,"Alexander","cruel","kind","the most kind<br>person in the world","unkind","cruel","person","lexant","lexant","male","the most cruel<br>person in the world",0.12
13,8488,"one_slider",10,"David","deceitful","honest","the most honest<br>person in the world","dishonest","not deceitful","person","neg_lexant","lexant","male","the most deceitful<br>person in the world",0.79
13,6238,"one_slider",11,"Stephen","stupid","intelligent","the most intelligent<br>person in the world","unintelligent","not stupid","person","neg_lexant","lexant","male","the most stupid<br>person in the world",0.65
13,9879,"one_slider",12,"Gabriel","cold","affectionate","the most affectionate<br>person in the world","unaffectionate","not affectionate","person","neg_positive","lexant","male","the most cold<br>person in the world",0.24
14,10006,"one_slider",1,"Anthony","ignorant","educated","the most educated<br>person in the world","uneducated","ignorant","person","lexant","lexant","male","the most ignorant<br>person in the world",0.09
14,7093,"one_slider",2,"Daniel","cruel","kind","the most kind<br>person in the world","unkind","not kind","person","neg_positive","lexant","male","the most cruel<br>person in the world",0.31
14,3848,"one_slider",3,"Tom","flaky","reliable","the most reliable<br>person in the world","unreliable","flaky","person","lexant","lexant","male","the most flaky<br>person in the world",0.28
14,3792,"one_slider",4,"Claire","boring","interesting","the most interesting<br>person in the world","uninteresting","not boring","person","neg_lexant","lexant","female","the most boring<br>person in the world",0.4
14,5386,"one_slider",5,"Eric","lazy","ambitious","the most ambitious<br>person in the world","unambitious","not lazy","person","neg_lexant","lexant","male","the most lazy<br>person in the world",0.67
14,4072,"one_slider",6,"Veronica","deceitful","honest","the most honest<br>person in the world","dishonest","not honest","person","neg_positive","lexant","female","the most deceitful<br>person in the world",0.16
14,6960,"one_slider",7,"Lucas","mean","friendly","the most friendly<br>person in the world","unfriendly","mean","person","lexant","lexant","male","the most mean<br>person in the world",0.27
14,43536,"one_slider",8,"Alexander","wasteful","resourceful","the most resourceful<br>person in the world","unresourceful","not resourceful","person","neg_positive","lexant","male","the most wasteful<br>person in the world",0.29
14,3276,"one_slider",9,"Melinda","stingy","generous","the most generous<br>person in the world","ungenerous","generous","person","positive","lexant","female","the most stingy<br>person in the world",0.25
14,5655,"one_slider",10,"Michael","fake","sincere","the most sincere<br>person in the world","insincere","not fake","person","neg_lexant","lexant","male","the most fake<br>person in the world",0.77
14,3656,"one_slider",11,"Gabriel","rude","polite","the most polite<br>person in the world","impolite","polite","person","positive","lexant","male","the most rude<br>person in the world",0.64
14,2603,"one_slider",12,"Greg","cold","affectionate","the most affectionate<br>person in the world","unaffectionate","affectionate","person","positive","lexant","male","the most cold<br>person in the world",0.67
15,14633,"one_slider",1,"Maya","resentful","forgiving","the most forgiving<br>person in the world","unforgiving","forgiving","person","positive","lexant","female","the most resentful<br>person in the world",0.79
15,10623,"one_slider",2,"John","deceitful","honest","the most honest<br>person in the world","dishonest","not deceitful","person","neg_lexant","lexant","male","the most deceitful<br>person in the world",0.83
15,6025,"one_slider",3,"Eric","boring","interesting","the most interesting<br>person in the world","uninteresting","boring","person","lexant","lexant","male","the most boring<br>person in the world",0.04
15,4945,"one_slider",4,"Julia","ugly","attractive","the most attractive<br>person in the world","unattractive","ugly","person","lexant","lexant","female","the most ugly<br>person in the world",0.08
15,17285,"one_slider",5,"Alexander","traitorous","patriotic","the most patriotic<br>person in the world","unpatriotic","not patriotic","person","neg_positive","lexant","male","the most traitorous<br>person in the world",0.18
15,4008,"one_slider",6,"Lee","lazy","ambitious","the most ambitious<br>person in the world","unambitious","ambitious","person","positive","lexant","male","the most lazy<br>person in the world",0.9
15,4711,"one_slider",7,"Melinda","mean","friendly","the most friendly<br>person in the world","unfriendly","friendly","person","positive","lexant","female","the most mean<br>person in the world",0.71
15,10865,"one_slider",8,"Tom","cruel","kind","the most kind<br>person in the world","unkind","not kind","person","neg_positive","lexant","male","the most cruel<br>person in the world",0.25
15,9554,"one_slider",9,"Sophia","wasteful","resourceful","the most resourceful<br>person in the world","unresourceful","not wasteful","person","neg_lexant","lexant","female","the most wasteful<br>person in the world",0.23
15,15676,"one_slider",10,"Monica","bigoted","tolerant","the most tolerant<br>person in the world","intolerant","bigoted","person","lexant","lexant","female","the most bigoted<br>person in the world",0.23
15,4934,"one_slider",11,"Michael","rude","polite","the most polite<br>person in the world","impolite","not rude","person","neg_lexant","lexant","male","the most rude<br>person in the world",0.74
15,8309,"one_slider",12,"William","fake","sincere","the most sincere<br>person in the world","insincere","not sincere","person","neg_positive","lexant","male","the most fake<br>person in the world",0.24
16,16868,"one_slider",1,"Anthony","stingy","generous","the most generous<br>person in the world","ungenerous","stingy","person","lexant","lexant","male","the most stingy<br>person in the world",0.42
16,10767,"one_slider",2,"Lucas","traitorous","patriotic","the most patriotic<br>person in the world","unpatriotic","patriotic","person","positive","lexant","male","the most traitorous<br>person in the world",0.58
16,8079,"one_slider",3,"Claire","cruel","kind","the most kind<br>person in the world","unkind","not cruel","person","neg_lexant","lexant","female","the most cruel<br>person in the world",0.66
16,6399,"one_slider",4,"Stephanie","rude","polite","the most polite<br>person in the world","impolite","not rude","person","neg_lexant","lexant","female","the most rude<br>person in the world",0.63
16,6680,"one_slider",5,"David","deceitful","honest","the most honest<br>person in the world","dishonest","deceitful","person","lexant","lexant","male","the most deceitful<br>person in the world",0.34
16,8470,"one_slider",6,"Michelle","mean","friendly","the most friendly<br>person in the world","unfriendly","not friendly","person","neg_positive","lexant","female","the most mean<br>person in the world",0.44
16,3888,"one_slider",7,"Cameron","boring","interesting","the most interesting<br>person in the world","uninteresting","interesting","person","positive","lexant","male","the most boring<br>person in the world",0.57
16,3791,"one_slider",8,"Maya","ignorant","educated","the most educated<br>person in the world","uneducated","educated","person","positive","lexant","female","the most ignorant<br>person in the world",0.55
16,4871,"one_slider",9,"Tom","crazy","rational","the most rational<br>person in the world","irrational","not rational","person","neg_positive","lexant","male","the most crazy<br>person in the world",0.44
16,4378,"one_slider",10,"Julia","flaky","reliable","the most reliable<br>person in the world","unreliable","not reliable","person","neg_positive","lexant","female","the most flaky<br>person in the world",0.46
16,3083,"one_slider",11,"Kathleen","lazy","ambitious","the most ambitious<br>person in the world","unambitious","lazy","person","lexant","lexant","female","the most lazy<br>person in the world",0.43
16,5242,"one_slider",12,"Greg","sad","happy","the most happy<br>person in the world","unhappy","not sad","person","neg_lexant","lexant","male","the most sad<br>person in the world",0.54
17,25025,"one_slider",1,"Alicia","stingy","generous","the most generous<br>person in the world","ungenerous","generous","person","positive","lexant","female","the most stingy<br>person in the world",0.58
17,4154,"one_slider",2,"Veronica","ignorant","educated","the most educated<br>person in the world","uneducated","not educated","person","neg_positive","lexant","female","the most ignorant<br>person in the world",0.33
17,1726,"one_slider",3,"Julia","bigoted","tolerant","the most tolerant<br>person in the world","intolerant","bigoted","person","lexant","lexant","female","the most bigoted<br>person in the world",0.63
17,1408,"one_slider",4,"Maya","cold","affectionate","the most affectionate<br>person in the world","unaffectionate","not affectionate","person","neg_positive","lexant","female","the most cold<br>person in the world",0.36
17,3499,"one_slider",5,"Anthony","boring","interesting","the most interesting<br>person in the world","uninteresting","not interesting","person","neg_positive","lexant","male","the most boring<br>person in the world",0.27
17,4012,"one_slider",6,"Cameron","rude","polite","the most polite<br>person in the world","impolite","rude","person","lexant","lexant","male","the most rude<br>person in the world",0.42
17,2038,"one_slider",7,"Michael","lazy","ambitious","the most ambitious<br>person in the world","unambitious","not lazy","person","neg_lexant","lexant","male","the most lazy<br>person in the world",0.37
17,1782,"one_slider",8,"Claire","stupid","intelligent","the most intelligent<br>person in the world","unintelligent","intelligent","person","positive","lexant","female","the most stupid<br>person in the world",0.76
17,2250,"one_slider",9,"John","childish","mature","the most mature<br>person in the world","immature","not childish","person","neg_lexant","lexant","male","the most childish<br>person in the world",0.44
17,2489,"one_slider",10,"Michelle","flaky","reliable","the most reliable<br>person in the world","unreliable","flaky","person","lexant","lexant","female","the most flaky<br>person in the world",0.64
17,2097,"one_slider",11,"Daniel","resentful","forgiving","the most forgiving<br>person in the world","unforgiving","forgiving","person","positive","lexant","male","the most resentful<br>person in the world",0.35
17,5465,"one_slider",12,"Monica","cruel","kind","the most kind<br>person in the world","unkind","not cruel","person","neg_lexant","lexant","female","the most cruel<br>person in the world",0.78
18,19033,"one_slider",1,"Jennifer","mean","friendly","the most friendly<br>person in the world","unfriendly","not mean","person","neg_lexant","lexant","female","the most mean<br>person in the world",0.91
18,7511,"one_slider",2,"Greg","sad","happy","the most happy<br>person in the world","unhappy","not happy","person","neg_positive","lexant","male","the most sad<br>person in the world",0.09
18,6014,"one_slider",3,"Melinda","resentful","forgiving","the most forgiving<br>person in the world","unforgiving","not forgiving","person","neg_positive","lexant","female","the most resentful<br>person in the world",0.08
18,7991,"one_slider",4,"Michelle","cruel","kind","the most kind<br>person in the world","unkind","cruel","person","lexant","lexant","female","the most cruel<br>person in the world",0.08
18,3692,"one_slider",5,"Alexander","fake","sincere","the most sincere<br>person in the world","insincere","not fake","person","neg_lexant","lexant","male","the most fake<br>person in the world",0.89
18,3848,"one_slider",6,"Cameron","rude","polite","the most polite<br>person in the world","impolite","rude","person","lexant","lexant","male","the most rude<br>person in the world",0.08
18,5936,"one_slider",7,"Eric","deceitful","honest","the most honest<br>person in the world","dishonest","not honest","person","neg_positive","lexant","male","the most deceitful<br>person in the world",0.08
18,5728,"one_slider",8,"Angela","ugly","attractive","the most attractive<br>person in the world","unattractive","ugly","person","lexant","lexant","female","the most ugly<br>person in the world",0.1
18,3825,"one_slider",9,"Sophia","ignorant","educated","the most educated<br>person in the world","uneducated","educated","person","positive","lexant","female","the most ignorant<br>person in the world",0.9
18,3780,"one_slider",10,"Julia","crazy","rational","the most rational<br>person in the world","irrational","rational","person","positive","lexant","female","the most crazy<br>person in the world",0.91
18,2800,"one_slider",11,"Daniel","bigoted","tolerant","the most tolerant<br>person in the world","intolerant","tolerant","person","positive","lexant","male","the most bigoted<br>person in the world",0.92
18,5504,"one_slider",12,"Maya","traitorous","patriotic","the most patriotic<br>person in the world","unpatriotic","not traitorous","person","neg_lexant","lexant","female","the most traitorous<br>person in the world",0.88
19,10577,"one_slider",1,"David","stingy","generous","the most generous<br>person in the world","ungenerous","not stingy","person","neg_lexant","lexant","male","the most stingy<br>person in the world",0.6
19,5340,"one_slider",2,"Melinda","sad","happy","the most happy<br>person in the world","unhappy","not happy","person","neg_positive","lexant","female","the most sad<br>person in the world",0.36
19,5862,"one_slider",3,"Michael","mean","friendly","the most friendly<br>person in the world","unfriendly","mean","person","lexant","lexant","male","the most mean<br>person in the world",0.24
19,5140,"one_slider",4,"Sophia","lazy","ambitious","the most ambitious<br>person in the world","unambitious","not lazy","person","neg_lexant","lexant","female","the most lazy<br>person in the world",0.49
19,2884,"one_slider",5,"Daniel","childish","mature","the most mature<br>person in the world","immature","not mature","person","neg_positive","lexant","male","the most childish<br>person in the world",0.32
19,2890,"one_slider",6,"Maya","crazy","rational","the most rational<br>person in the world","irrational","not rational","person","neg_positive","lexant","female","the most crazy<br>person in the world",0.29
19,2807,"one_slider",7,"Jennifer","ignorant","educated","the most educated<br>person in the world","uneducated","educated","person","positive","lexant","female","the most ignorant<br>person in the world",0.56
19,3014,"one_slider",8,"Eric","deceitful","honest","the most honest<br>person in the world","dishonest","honest","person","positive","lexant","male","the most deceitful<br>person in the world",0.58
19,4606,"one_slider",9,"Alexander","flaky","reliable","the most reliable<br>person in the world","unreliable","reliable","person","positive","lexant","male","the most flaky<br>person in the world",0.85
19,3980,"one_slider",10,"Gabriel","fake","sincere","the most sincere<br>person in the world","insincere","not fake","person","neg_lexant","lexant","male","the most fake<br>person in the world",0.49
19,6034,"one_slider",11,"Kathleen","traitorous","patriotic","the most patriotic<br>person in the world","unpatriotic","traitorous","person","lexant","lexant","female","the most traitorous<br>person in the world",0.88
19,6628,"one_slider",12,"William","stupid","intelligent","the most intelligent<br>person in the world","unintelligent","stupid","person","lexant","lexant","male","the most stupid<br>person in the world",0.47
20,11289,"one_slider",1,"Greg","resentful","forgiving","the most forgiving<br>person in the world","unforgiving","forgiving","person","positive","lexant","male","the most resentful<br>person in the world",0.68
20,6719,"one_slider",2,"Maya","fake","sincere","the most sincere<br>person in the world","insincere","not sincere","person","neg_positive","lexant","female","the most fake<br>person in the world",0.05
20,7139,"one_slider",3,"Cameron","crazy","rational","the most rational<br>person in the world","irrational","crazy","person","lexant","lexant","male","the most crazy<br>person in the world",0.75
20,8799,"one_slider",4,"Sophia","rude","polite","the most polite<br>person in the world","impolite","polite","person","positive","lexant","female","the most rude<br>person in the world",0.63
20,4489,"one_slider",5,"Michael","cold","affectionate","the most affectionate<br>person in the world","unaffectionate","cold","person","lexant","lexant","male","the most cold<br>person in the world",0.19
20,4347,"one_slider",6,"Kathleen","sad","happy","the most happy<br>person in the world","unhappy","sad","person","lexant","lexant","female","the most sad<br>person in the world",0.16
20,5162,"one_slider",7,"Laura","flaky","reliable","the most reliable<br>person in the world","unreliable","not flaky","person","neg_lexant","lexant","female","the most flaky<br>person in the world",0.82
20,8262,"one_slider",8,"Melinda","traitorous","patriotic","the most patriotic<br>person in the world","unpatriotic","not patriotic","person","neg_positive","lexant","female","the most traitorous<br>person in the world",0.16
20,5499,"one_slider",9,"Anthony","ugly","attractive","the most attractive<br>person in the world","unattractive","not ugly","person","neg_lexant","lexant","male","the most ugly<br>person in the world",0.52
20,6688,"one_slider",10,"Julia","deceitful","honest","the most honest<br>person in the world","dishonest","not deceitful","person","neg_lexant","lexant","female","the most deceitful<br>person in the world",0.59
20,4199,"one_slider",11,"Claire","lazy","ambitious","the most ambitious<br>person in the world","unambitious","not ambitious","person","neg_positive","lexant","female","the most lazy<br>person in the world",0.41
20,4110,"one_slider",12,"William","bigoted","tolerant","the most tolerant<br>person in the world","intolerant","tolerant","person","positive","lexant","male","the most bigoted<br>person in the world",0.52
21,16215,"one_slider",1,"Michael","flaky","reliable","the most reliable<br>person in the world","unreliable","not flaky","person","neg_lexant","lexant","male","the most flaky<br>person in the world",0.61
21,11150,"one_slider",2,"Jennifer","boring","interesting","the most interesting<br>person in the world","uninteresting","not interesting","person","neg_positive","lexant","female","the most boring<br>person in the world",0.22
21,10871,"one_slider",3,"Tom","cruel","kind","the most kind<br>person in the world","unkind","not kind","person","neg_positive","lexant","male","the most cruel<br>person in the world",0.13
21,8003,"one_slider",4,"Lee","crazy","rational","the most rational<br>person in the world","irrational","not rational","person","neg_positive","lexant","male","the most crazy<br>person in the world",0.09
21,8458,"one_slider",5,"Alicia","bigoted","tolerant","the most tolerant<br>person in the world","intolerant","bigoted","person","lexant","lexant","female","the most bigoted<br>person in the world",0.15
21,4620,"one_slider",6,"David","traitorous","patriotic","the most patriotic<br>person in the world","unpatriotic","patriotic","person","positive","lexant","male","the most traitorous<br>person in the world",0.7
21,6312,"one_slider",7,"Greg","childish","mature","the most mature<br>person in the world","immature","not childish","person","neg_lexant","lexant","male","the most childish<br>person in the world",0.76
21,10198,"one_slider",8,"Eric","cold","affectionate","the most affectionate<br>person in the world","unaffectionate","cold","person","lexant","lexant","male","the most cold<br>person in the world",0.15
21,5221,"one_slider",9,"Stephanie","deceitful","honest","the most honest<br>person in the world","dishonest","honest","person","positive","lexant","female","the most deceitful<br>person in the world",0.76
21,5661,"one_slider",10,"Kim","lazy","ambitious","the most ambitious<br>person in the world","unambitious","lazy","person","lexant","lexant","female","the most lazy<br>person in the world",0.21
21,5237,"one_slider",11,"Anthony","wasteful","resourceful","the most resourceful<br>person in the world","unresourceful","resourceful","person","positive","lexant","male","the most wasteful<br>person in the world",0.72
21,7503,"one_slider",12,"Monica","resentful","forgiving","the most forgiving<br>person in the world","unforgiving","not resentful","person","neg_lexant","lexant","female","the most resentful<br>person in the world",0.63
22,6190,"one_slider",1,"Angela","stingy","generous","the most generous<br>person in the world","ungenerous","not generous","person","neg_positive","lexant","female","the most stingy<br>person in the world",0.14
22,16977,"one_slider",2,"Monica","childish","mature","the most mature<br>person in the world","immature","not childish","person","neg_lexant","lexant","female","the most childish<br>person in the world",0.66
22,3532,"one_slider",3,"Sophia","bigoted","tolerant","the most tolerant<br>person in the world","intolerant","not bigoted","person","neg_lexant","lexant","female","the most bigoted<br>person in the world",0.44
22,3262,"one_slider",4,"Daniel","mean","friendly","the most friendly<br>person in the world","unfriendly","mean","person","lexant","lexant","male","the most mean<br>person in the world",0.11
22,3665,"one_slider",5,"Gabriel","deceitful","honest","the most honest<br>person in the world","dishonest","honest","person","positive","lexant","male","the most deceitful<br>person in the world",0.72
22,10010,"one_slider",6,"Stephen","lazy","ambitious","the most ambitious<br>person in the world","unambitious","not ambitious","person","neg_positive","lexant","male","the most lazy<br>person in the world",0.17
22,6102,"one_slider",7,"Lee","sad","happy","the most happy<br>person in the world","unhappy","sad","person","lexant","lexant","male","the most sad<br>person in the world",0.17
22,2629,"one_slider",8,"Michael","resentful","forgiving","the most forgiving<br>person in the world","unforgiving","resentful","person","lexant","lexant","male","the most resentful<br>person in the world",0.24
22,3245,"one_slider",9,"Stephanie","flaky","reliable","the most reliable<br>person in the world","unreliable","not reliable","person","neg_positive","lexant","female","the most flaky<br>person in the world",0.19
22,31351,"one_slider",10,"Jennifer","fake","sincere","the most sincere<br>person in the world","insincere","not fake","person","neg_lexant","lexant","female","the most fake<br>person in the world",0.74
22,76580,"one_slider",11,"David","wasteful","resourceful","the most resourceful<br>person in the world","unresourceful","resourceful","person","positive","lexant","male","the most wasteful<br>person in the world",0.83
22,2604,"one_slider",12,"Michelle","boring","interesting","the most interesting<br>person in the world","uninteresting","interesting","person","positive","lexant","female","the most boring<br>person in the world",0.85
23,21323,"one_slider",1,"Kim","boring","interesting","the most interesting<br>person in the world","uninteresting","not interesting","person","neg_positive","lexant","female","the most boring<br>person in the world",0.45
23,9340,"one_slider",2,"Julia","rude","polite","the most polite<br>person in the world","impolite","polite","person","positive","lexant","female","the most rude<br>person in the world",0.54
23,12350,"one_slider",3,"Jennifer","deceitful","honest","the most honest<br>person in the world","dishonest","deceitful","person","lexant","lexant","female","the most deceitful<br>person in the world",0.45
23,6860,"one_slider",4,"Cameron","mean","friendly","the most friendly<br>person in the world","unfriendly","not friendly","person","neg_positive","lexant","male","the most mean<br>person in the world",0.48
23,6818,"one_slider",5,"Alicia","ignorant","educated","the most educated<br>person in the world","uneducated","not educated","person","neg_positive","lexant","female","the most ignorant<br>person in the world",0.51
23,8866,"one_slider",6,"Kathleen","cold","affectionate","the most affectionate<br>person in the world","unaffectionate","not cold","person","neg_lexant","lexant","female","the most cold<br>person in the world",0.46
23,6347,"one_slider",7,"Gabriel","lazy","ambitious","the most ambitious<br>person in the world","unambitious","lazy","person","lexant","lexant","male","the most lazy<br>person in the world",0.51
23,5445,"one_slider",8,"Alexander","fake","sincere","the most sincere<br>person in the world","insincere","not fake","person","neg_lexant","lexant","male","the most fake<br>person in the world",0.48
23,5330,"one_slider",9,"Sophia","crazy","rational","the most rational<br>person in the world","irrational","crazy","person","lexant","lexant","female","the most crazy<br>person in the world",0.53
23,4780,"one_slider",10,"Laura","flaky","reliable","the most reliable<br>person in the world","unreliable","reliable","person","positive","lexant","female","the most flaky<br>person in the world",0.53
23,5686,"one_slider",11,"Monica","stupid","intelligent","the most intelligent<br>person in the world","unintelligent","intelligent","person","positive","lexant","female","the most stupid<br>person in the world",0.59
23,5019,"one_slider",12,"Angela","resentful","forgiving","the most forgiving<br>person in the world","unforgiving","not resentful","person","neg_lexant","lexant","female","the most resentful<br>person in the world",0.5
24,5850,"one_slider",1,"Angela","fake","sincere","the most sincere<br>person in the world","insincere","fake","person","lexant","lexant","female","the most fake<br>person in the world",0.39
24,3164,"one_slider",2,"Melinda","lazy","ambitious","the most ambitious<br>person in the world","unambitious","lazy","person","lexant","lexant","female","the most lazy<br>person in the world",0.51
24,3848,"one_slider",3,"Michelle","bigoted","tolerant","the most tolerant<br>person in the world","intolerant","not tolerant","person","neg_positive","lexant","female","the most bigoted<br>person in the world",0.22
24,4061,"one_slider",4,"Jennifer","ignorant","educated","the most educated<br>person in the world","uneducated","not ignorant","person","neg_lexant","lexant","female","the most ignorant<br>person in the world",0.82
24,3600,"one_slider",5,"Monica","cruel","kind","the most kind<br>person in the world","unkind","not kind","person","neg_positive","lexant","female","the most cruel<br>person in the world",0.25
24,4335,"one_slider",6,"Kathleen","resentful","forgiving","the most forgiving<br>person in the world","unforgiving","not resentful","person","neg_lexant","lexant","female","the most resentful<br>person in the world",0.78
24,3039,"one_slider",7,"Sophia","childish","mature","the most mature<br>person in the world","immature","mature","person","positive","lexant","female","the most childish<br>person in the world",0.73
24,3517,"one_slider",8,"Laura","stupid","intelligent","the most intelligent<br>person in the world","unintelligent","not intelligent","person","neg_positive","lexant","female","the most stupid<br>person in the world",0.18
24,3175,"one_slider",9,"Alicia","stingy","generous","the most generous<br>person in the world","ungenerous","stingy","person","lexant","lexant","female","the most stingy<br>person in the world",0.21
24,2847,"one_slider",10,"David","mean","friendly","the most friendly<br>person in the world","unfriendly","not mean","person","neg_lexant","lexant","male","the most mean<br>person in the world",0.85
24,3551,"one_slider",11,"Anthony","boring","interesting","the most interesting<br>person in the world","uninteresting","interesting","person","positive","lexant","male","the most boring<br>person in the world",0.77
24,2175,"one_slider",12,"Stephanie","wasteful","resourceful","the most resourceful<br>person in the world","unresourceful","resourceful","person","positive","lexant","female","the most wasteful<br>person in the world",0.79
25,9042,"one_slider",1,"Michelle","lazy","ambitious","the most ambitious<br>person in the world","unambitious","not ambitious","person","neg_positive","lexant","female","the most lazy<br>person in the world",0.25
25,24712,"one_slider",2,"Michael","resentful","forgiving","the most forgiving<br>person in the world","unforgiving","forgiving","person","positive","lexant","male","the most resentful<br>person in the world",0.87
25,6644,"one_slider",3,"Daniel","mean","friendly","the most friendly<br>person in the world","unfriendly","mean","person","lexant","lexant","male","the most mean<br>person in the world",0.38
25,7244,"one_slider",4,"Jennifer","stupid","intelligent","the most intelligent<br>person in the world","unintelligent","intelligent","person","positive","lexant","female","the most stupid<br>person in the world",0.65
25,5175,"one_slider",5,"Melinda","sad","happy","the most happy<br>person in the world","unhappy","not sad","person","neg_lexant","lexant","female","the most sad<br>person in the world",0.58
25,5729,"one_slider",6,"Tom","ignorant","educated","the most educated<br>person in the world","uneducated","educated","person","positive","lexant","male","the most ignorant<br>person in the world",0.65
25,4647,"one_slider",7,"Anthony","rude","polite","the most polite<br>person in the world","impolite","not polite","person","neg_positive","lexant","male","the most rude<br>person in the world",0.37
25,5081,"one_slider",8,"David","fake","sincere","the most sincere<br>person in the world","insincere","fake","person","lexant","lexant","male","the most fake<br>person in the world",0.23
25,5451,"one_slider",9,"Kim","cruel","kind","the most kind<br>person in the world","unkind","not cruel","person","neg_lexant","lexant","female","the most cruel<br>person in the world",0.53
25,4947,"one_slider",10,"Veronica","bigoted","tolerant","the most tolerant<br>person in the world","intolerant","bigoted","person","lexant","lexant","female","the most bigoted<br>person in the world",0.34
25,4597,"one_slider",11,"Maya","traitorous","patriotic","the most patriotic<br>person in the world","unpatriotic","not traitorous","person","neg_lexant","lexant","female","the most traitorous<br>person in the world",0.51
25,4552,"one_slider",12,"Lee","childish","mature","the most mature<br>person in the world","immature","not mature","person","neg_positive","lexant","male","the most childish<br>person in the world",0.35
26,2457,"one_slider",1,"Michael","mean","friendly","the most friendly<br>person in the world","unfriendly","friendly","person","positive","lexant","male","the most mean<br>person in the world",0.54
26,1559,"one_slider",2,"David","boring","interesting","the most interesting<br>person in the world","uninteresting","not boring","person","neg_lexant","lexant","male","the most boring<br>person in the world",0.29
26,1239,"one_slider",3,"Claire","wasteful","resourceful","the most resourceful<br>person in the world","unresourceful","not wasteful","person","neg_lexant","lexant","female","the most wasteful<br>person in the world",0.68
26,1343,"one_slider",4,"Laura","childish","mature","the most mature<br>person in the world","immature","not mature","person","neg_positive","lexant","female","the most childish<br>person in the world",0.43
26,1576,"one_slider",5,"William","stingy","generous","the most generous<br>person in the world","ungenerous","stingy","person","lexant","lexant","male","the most stingy<br>person in the world",0.26
26,1424,"one_slider",6,"Melinda","cold","affectionate","the most affectionate<br>person in the world","unaffectionate","not affectionate","person","neg_positive","lexant","female","the most cold<br>person in the world",0.76
26,2695,"one_slider",7,"Jennifer","cruel","kind","the most kind<br>person in the world","unkind","cruel","person","lexant","lexant","female","the most cruel<br>person in the world",0.33
26,1559,"one_slider",8,"Stephanie","resentful","forgiving","the most forgiving<br>person in the world","unforgiving","forgiving","person","positive","lexant","female","the most resentful<br>person in the world",0.68
26,1846,"one_slider",9,"Kathleen","ignorant","educated","the most educated<br>person in the world","uneducated","educated","person","positive","lexant","female","the most ignorant<br>person in the world",0.48
26,3028,"one_slider",10,"Kim","stupid","intelligent","the most intelligent<br>person in the world","unintelligent","not intelligent","person","neg_positive","lexant","female","the most stupid<br>person in the world",0.21
26,2483,"one_slider",11,"Veronica","rude","polite","the most polite<br>person in the world","impolite","rude","person","lexant","lexant","female","the most rude<br>person in the world",0.36
26,1724,"one_slider",12,"Angela","deceitful","honest","the most honest<br>person in the world","dishonest","not deceitful","person","neg_lexant","lexant","female","the most deceitful<br>person in the world",0.66
27,14411,"one_slider",1,"Kathleen","fake","sincere","the most sincere<br>person in the world","insincere","sincere","person","positive","lexant","female","the most fake<br>person in the world",0.69
27,10588,"one_slider",2,"Lucas","traitorous","patriotic","the most patriotic<br>person in the world","unpatriotic","traitorous","person","lexant","lexant","male","the most traitorous<br>person in the world",0.29
27,8830,"one_slider",3,"Michael","ugly","attractive","the most attractive<br>person in the world","unattractive","not attractive","person","neg_positive","lexant","male","the most ugly<br>person in the world",0.49
27,13951,"one_slider",4,"Lee","cold","affectionate","the most affectionate<br>person in the world","unaffectionate","not cold","person","neg_lexant","lexant","male","the most cold<br>person in the world",0.69
27,4519,"one_slider",5,"Jennifer","lazy","ambitious","the most ambitious<br>person in the world","unambitious","ambitious","person","positive","lexant","female","the most lazy<br>person in the world",0.69
27,6161,"one_slider",6,"Sophia","bigoted","tolerant","the most tolerant<br>person in the world","intolerant","bigoted","person","lexant","lexant","female","the most bigoted<br>person in the world",0.28
27,4590,"one_slider",7,"Kim","stupid","intelligent","the most intelligent<br>person in the world","unintelligent","intelligent","person","positive","lexant","female","the most stupid<br>person in the world",0.72
27,13767,"one_slider",8,"Michelle","resentful","forgiving","the most forgiving<br>person in the world","unforgiving","not resentful","person","neg_lexant","lexant","female","the most resentful<br>person in the world",0.63
27,5936,"one_slider",9,"Anthony","crazy","rational","the most rational<br>person in the world","irrational","crazy","person","lexant","lexant","male","the most crazy<br>person in the world",0.31
27,6791,"one_slider",10,"Laura","deceitful","honest","the most honest<br>person in the world","dishonest","not honest","person","neg_positive","lexant","female","the most deceitful<br>person in the world",0.29
27,8225,"one_slider",11,"Tom","stingy","generous","the most generous<br>person in the world","ungenerous","not stingy","person","neg_lexant","lexant","male","the most stingy<br>person in the world",0.7
27,10740,"one_slider",12,"David","wasteful","resourceful","the most resourceful<br>person in the world","unresourceful","not resourceful","person","neg_positive","lexant","male","the most wasteful<br>person in the world",0.33
28,9767,"one_slider",1,"Alexander","childish","mature","the most mature<br>person in the world","immature","mature","person","positive","lexant","male","the most childish<br>person in the world",0.66
28,3796,"one_slider",2,"Jennifer","fake","sincere","the most sincere<br>person in the world","insincere","sincere","person","positive","lexant","female","the most fake<br>person in the world",0.7
28,6789,"one_slider",3,"Kim","wasteful","resourceful","the most resourceful<br>person in the world","unresourceful","not resourceful","person","neg_positive","lexant","female","the most wasteful<br>person in the world",0.28
28,5110,"one_slider",4,"Stephen","ugly","attractive","the most attractive<br>person in the world","unattractive","not ugly","person","neg_lexant","lexant","male","the most ugly<br>person in the world",0.67
28,2967,"one_slider",5,"Kathleen","resentful","forgiving","the most forgiving<br>person in the world","unforgiving","forgiving","person","positive","lexant","female","the most resentful<br>person in the world",0.61
28,4816,"one_slider",6,"David","stingy","generous","the most generous<br>person in the world","ungenerous","stingy","person","lexant","lexant","male","the most stingy<br>person in the world",0.23
28,18281,"one_slider",7,"Veronica","cruel","kind","the most kind<br>person in the world","unkind","not kind","person","neg_positive","lexant","female","the most cruel<br>person in the world",0.36
28,17152,"one_slider",8,"Stephanie","lazy","ambitious","the most ambitious<br>person in the world","unambitious","not lazy","person","neg_lexant","lexant","female","the most lazy<br>person in the world",0.66
28,4494,"one_slider",9,"Sophia","flaky","reliable","the most reliable<br>person in the world","unreliable","flaky","person","lexant","lexant","female","the most flaky<br>person in the world",0.28
28,3932,"one_slider",10,"Angela","boring","interesting","the most interesting<br>person in the world","uninteresting","boring","person","lexant","lexant","female","the most boring<br>person in the world",0.26
28,5651,"one_slider",11,"Claire","traitorous","patriotic","the most patriotic<br>person in the world","unpatriotic","not traitorous","person","neg_lexant","lexant","female","the most traitorous<br>person in the world",0.6
28,23502,"one_slider",12,"Michelle","sad","happy","the most happy<br>person in the world","unhappy","not happy","person","neg_positive","lexant","female","the most sad<br>person in the world",0.31
29,9942,"one_slider",1,"Greg","ignorant","educated","the most educated<br>person in the world","uneducated","educated","person","positive","lexant","male","the most ignorant<br>person in the world",0.59
29,8672,"one_slider",2,"Anthony","cruel","kind","the most kind<br>person in the world","unkind","cruel","person","lexant","lexant","male","the most cruel<br>person in the world",0.25
29,4207,"one_slider",3,"Cameron","stingy","generous","the most generous<br>person in the world","ungenerous","not generous","person","neg_positive","lexant","male","the most stingy<br>person in the world",0.48
29,7294,"one_slider",4,"Lee","cold","affectionate","the most affectionate<br>person in the world","unaffectionate","not cold","person","neg_lexant","lexant","male","the most cold<br>person in the world",0.42
29,3854,"one_slider",5,"Veronica","deceitful","honest","the most honest<br>person in the world","dishonest","honest","person","positive","lexant","female","the most deceitful<br>person in the world",0.8
29,6967,"one_slider",6,"Alicia","bigoted","tolerant","the most tolerant<br>person in the world","intolerant","bigoted","person","lexant","lexant","female","the most bigoted<br>person in the world",0.5
29,8111,"one_slider",7,"Stephen","mean","friendly","the most friendly<br>person in the world","unfriendly","not friendly","person","neg_positive","lexant","male","the most mean<br>person in the world",0.37
29,4921,"one_slider",8,"Monica","lazy","ambitious","the most ambitious<br>person in the world","unambitious","not lazy","person","neg_lexant","lexant","female","the most lazy<br>person in the world",0.78
29,4647,"one_slider",9,"Sophia","resentful","forgiving","the most forgiving<br>person in the world","unforgiving","forgiving","person","positive","lexant","female","the most resentful<br>person in the world",0.88
29,3962,"one_slider",10,"David","sad","happy","the most happy<br>person in the world","unhappy","not happy","person","neg_positive","lexant","male","the most sad<br>person in the world",0.31
29,4137,"one_slider",11,"Eric","ugly","attractive","the most attractive<br>person in the world","unattractive","not ugly","person","neg_lexant","lexant","male","the most ugly<br>person in the world",0.35
29,29046,"one_slider",12,"Alexander","stupid","intelligent","the most intelligent<br>person in the world","unintelligent","stupid","person","lexant","lexant","male","the most stupid<br>person in the world",0.42
30,15756,"one_slider",1,"Anthony","childish","mature","the most mature<br>person in the world","immature","not mature","person","neg_positive","lexant","male","the most childish<br>person in the world",0.43
30,8406,"one_slider",2,"Kim","wasteful","resourceful","the most resourceful<br>person in the world","unresourceful","resourceful","person","positive","lexant","female","the most wasteful<br>person in the world",0.6
30,8666,"one_slider",3,"Lee","stingy","generous","the most generous<br>person in the world","ungenerous","not stingy","person","neg_lexant","lexant","male","the most stingy<br>person in the world",0.57
30,6322,"one_slider",4,"Claire","flaky","reliable","the most reliable<br>person in the world","unreliable","reliable","person","positive","lexant","female","the most flaky<br>person in the world",0.66
30,5048,"one_slider",5,"Eric","deceitful","honest","the most honest<br>person in the world","dishonest","deceitful","person","lexant","lexant","male","the most deceitful<br>person in the world",0.36
30,6831,"one_slider",6,"Alexander","bigoted","tolerant","the most tolerant<br>person in the world","intolerant","tolerant","person","positive","lexant","male","the most bigoted<br>person in the world",0.6
30,7215,"one_slider",7,"Jennifer","mean","friendly","the most friendly<br>person in the world","unfriendly","not friendly","person","neg_positive","lexant","female","the most mean<br>person in the world",0.38
30,6627,"one_slider",8,"Kathleen","fake","sincere","the most sincere<br>person in the world","insincere","not fake","person","neg_lexant","lexant","female","the most fake<br>person in the world",0.61
30,6706,"one_slider",9,"Greg","resentful","forgiving","the most forgiving<br>person in the world","unforgiving","not forgiving","person","neg_positive","lexant","male","the most resentful<br>person in the world",0.44
30,6384,"one_slider",10,"Michelle","crazy","rational","the most rational<br>person in the world","irrational","not crazy","person","neg_lexant","lexant","female","the most crazy<br>person in the world",0.6
30,10427,"one_slider",11,"Alicia","stupid","intelligent","the most intelligent<br>person in the world","unintelligent","stupid","person","lexant","lexant","female","the most stupid<br>person in the world",0.41
30,7066,"one_slider",12,"William","cruel","kind","the most kind<br>person in the world","unkind","cruel","person","lexant","lexant","male","the most cruel<br>person in the world",0.44
31,17761,"one_slider",1,"Daniel","traitorous","patriotic","the most patriotic<br>person in the world","unpatriotic","not traitorous","person","neg_lexant","lexant","male","the most traitorous<br>person in the world",0.82
31,12012,"one_slider",2,"Michelle","crazy","rational","the most rational<br>person in the world","irrational","rational","person","positive","lexant","female","the most crazy<br>person in the world",0.71
31,6541,"one_slider",3,"Stephanie","ugly","attractive","the most attractive<br>person in the world","unattractive","attractive","person","positive","lexant","female","the most ugly<br>person in the world",0.66
31,5183,"one_slider",4,"Kathleen","cold","affectionate","the most affectionate<br>person in the world","unaffectionate","not cold","person","neg_lexant","lexant","female","the most cold<br>person in the world",0.64
31,5266,"one_slider",5,"Julia","deceitful","honest","the most honest<br>person in the world","dishonest","deceitful","person","lexant","lexant","female","the most deceitful<br>person in the world",0.05
31,5119,"one_slider",6,"David","stingy","generous","the most generous<br>person in the world","ungenerous","not stingy","person","neg_lexant","lexant","male","the most stingy<br>person in the world",0.72
31,4681,"one_slider",7,"Alexander","lazy","ambitious","the most ambitious<br>person in the world","unambitious","not ambitious","person","neg_positive","lexant","male","the most lazy<br>person in the world",0.13
31,3716,"one_slider",8,"Claire","rude","polite","the most polite<br>person in the world","impolite","polite","person","positive","lexant","female","the most rude<br>person in the world",0.83
31,3633,"one_slider",9,"Eric","resentful","forgiving","the most forgiving<br>person in the world","unforgiving","resentful","person","lexant","lexant","male","the most resentful<br>person in the world",0.15
31,3932,"one_slider",10,"Cameron","fake","sincere","the most sincere<br>person in the world","insincere","fake","person","lexant","lexant","male","the most fake<br>person in the world",0.14
31,4234,"one_slider",11,"Alicia","sad","happy","the most happy<br>person in the world","unhappy","not happy","person","neg_positive","lexant","female","the most sad<br>person in the world",0.11
31,3214,"one_slider",12,"Melinda","wasteful","resourceful","the most resourceful<br>person in the world","unresourceful","not resourceful","person","neg_positive","lexant","female","the most wasteful<br>person in the world",0.12
32,2248,"one_slider",1,"Angela","crazy","rational","the most rational<br>person in the world","irrational","crazy","person","lexant","lexant","female","the most crazy<br>person in the world",0.88
32,1904,"one_slider",2,"Stephanie","ugly","attractive","the most attractive<br>person in the world","unattractive","not attractive","person","neg_positive","lexant","female","the most ugly<br>person in the world",0.61
32,1201,"one_slider",3,"Tom","boring","interesting","the most interesting<br>person in the world","uninteresting","not interesting","person","neg_positive","lexant","male","the most boring<br>person in the world",0.86
32,1062,"one_slider",4,"Alexander","traitorous","patriotic","the most patriotic<br>person in the world","unpatriotic","not traitorous","person","neg_lexant","lexant","male","the most traitorous<br>person in the world",0.34
32,915,"one_slider",5,"Kathleen","mean","friendly","the most friendly<br>person in the world","unfriendly","friendly","person","positive","lexant","female","the most mean<br>person in the world",0.74
32,1373,"one_slider",6,"Stephen","ignorant","educated","the most educated<br>person in the world","uneducated","not ignorant","person","neg_lexant","lexant","male","the most ignorant<br>person in the world",0.93
32,1186,"one_slider",7,"Michelle","wasteful","resourceful","the most resourceful<br>person in the world","unresourceful","resourceful","person","positive","lexant","female","the most wasteful<br>person in the world",0.6
32,1109,"one_slider",8,"Cameron","resentful","forgiving","the most forgiving<br>person in the world","unforgiving","resentful","person","lexant","lexant","male","the most resentful<br>person in the world",0.42
32,2057,"one_slider",9,"Maya","sad","happy","the most happy<br>person in the world","unhappy","not happy","person","neg_positive","lexant","female","the most sad<br>person in the world",0.75
32,1893,"one_slider",10,"William","stupid","intelligent","the most intelligent<br>person in the world","unintelligent","intelligent","person","positive","lexant","male","the most stupid<br>person in the world",0.23
32,1517,"one_slider",11,"Eric","childish","mature","the most mature<br>person in the world","immature","childish","person","lexant","lexant","male","the most childish<br>person in the world",0.86
32,1129,"one_slider",12,"David","bigoted","tolerant","the most tolerant<br>person in the world","intolerant","not bigoted","person","neg_lexant","lexant","male","the most bigoted<br>person in the world",0.62
33,16402,"one_slider",1,"Sophia","rude","polite","the most polite<br>person in the world","impolite","rude","person","lexant","lexant","female","the most rude<br>person in the world",0.01
33,9226,"one_slider",2,"Gabriel","wasteful","resourceful","the most resourceful<br>person in the world","unresourceful","not wasteful","person","neg_lexant","lexant","male","the most wasteful<br>person in the world",0.72
33,9446,"one_slider",3,"Kathleen","bigoted","tolerant","the most tolerant<br>person in the world","intolerant","not tolerant","person","neg_positive","lexant","female","the most bigoted<br>person in the world",0.17
33,7827,"one_slider",4,"Alicia","childish","mature","the most mature<br>person in the world","immature","childish","person","lexant","lexant","female","the most childish<br>person in the world",0.29
33,5576,"one_slider",5,"Tom","flaky","reliable","the most reliable<br>person in the world","unreliable","not reliable","person","neg_positive","lexant","male","the most flaky<br>person in the world",0.92
33,5726,"one_slider",6,"Eric","lazy","ambitious","the most ambitious<br>person in the world","unambitious","ambitious","person","positive","lexant","male","the most lazy<br>person in the world",0.71
33,7061,"one_slider",7,"Lucas","resentful","forgiving","the most forgiving<br>person in the world","unforgiving","not resentful","person","neg_lexant","lexant","male","the most resentful<br>person in the world",0.81
33,6697,"one_slider",8,"Anthony","mean","friendly","the most friendly<br>person in the world","unfriendly","not mean","person","neg_lexant","lexant","male","the most mean<br>person in the world",0.7
33,7905,"one_slider",9,"Stephen","ugly","attractive","the most attractive<br>person in the world","unattractive","not attractive","person","neg_positive","lexant","male","the most ugly<br>person in the world",0.08
33,6138,"one_slider",10,"Maya","crazy","rational","the most rational<br>person in the world","irrational","rational","person","positive","lexant","female","the most crazy<br>person in the world",0.8
33,5114,"one_slider",11,"Michael","deceitful","honest","the most honest<br>person in the world","dishonest","honest","person","positive","lexant","male","the most deceitful<br>person in the world",0.68
33,10541,"one_slider",12,"Daniel","stingy","generous","the most generous<br>person in the world","ungenerous","stingy","person","lexant","lexant","male","the most stingy<br>person in the world",0.21
34,13822,"one_slider",1,"Kim","cruel","kind","the most kind<br>person in the world","unkind","kind","person","positive","lexant","female","the most cruel<br>person in the world",0.83
34,11440,"one_slider",2,"Jennifer","crazy","rational","the most rational<br>person in the world","irrational","rational","person","positive","lexant","female","the most crazy<br>person in the world",0.83
34,7576,"one_slider",3,"Anthony","cold","affectionate","the most affectionate<br>person in the world","unaffectionate","cold","person","lexant","lexant","male","the most cold<br>person in the world",0.29
34,7568,"one_slider",4,"Lucas","bigoted","tolerant","the most tolerant<br>person in the world","intolerant","bigoted","person","lexant","lexant","male","the most bigoted<br>person in the world",0.07
34,4448,"one_slider",5,"Maya","mean","friendly","the most friendly<br>person in the world","unfriendly","not friendly","person","neg_positive","lexant","female","the most mean<br>person in the world",0.36
34,5376,"one_slider",6,"Claire","sad","happy","the most happy<br>person in the world","unhappy","not sad","person","neg_lexant","lexant","female","the most sad<br>person in the world",0.59
34,6680,"one_slider",7,"Michelle","rude","polite","the most polite<br>person in the world","impolite","not rude","person","neg_lexant","lexant","female","the most rude<br>person in the world",0.64
34,6768,"one_slider",8,"Kathleen","ignorant","educated","the most educated<br>person in the world","uneducated","not educated","person","neg_positive","lexant","female","the most ignorant<br>person in the world",0.46
34,5384,"one_slider",9,"Angela","wasteful","resourceful","the most resourceful<br>person in the world","unresourceful","resourceful","person","positive","lexant","female","the most wasteful<br>person in the world",0.85
34,5632,"one_slider",10,"Michael","flaky","reliable","the most reliable<br>person in the world","unreliable","flaky","person","lexant","lexant","male","the most flaky<br>person in the world",0.18
34,9080,"one_slider",11,"Tom","boring","interesting","the most interesting<br>person in the world","uninteresting","not interesting","person","neg_positive","lexant","male","the most boring<br>person in the world",0.46
34,5768,"one_slider",12,"William","childish","mature","the most mature<br>person in the world","immature","not childish","person","neg_lexant","lexant","male","the most childish<br>person in the world",0.65
35,11372,"one_slider",1,"Monica","resentful","forgiving","the most forgiving<br>person in the world","unforgiving","not resentful","person","neg_lexant","lexant","female","the most resentful<br>person in the world",0.17
35,24529,"one_slider",2,"Julia","traitorous","patriotic","the most patriotic<br>person in the world","unpatriotic","traitorous","person","lexant","lexant","female","the most traitorous<br>person in the world",0.17
35,10090,"one_slider",3,"Jennifer","boring","interesting","the most interesting<br>person in the world","uninteresting","not interesting","person","neg_positive","lexant","female","the most boring<br>person in the world",0.36
35,8447,"one_slider",4,"Claire","flaky","reliable","the most reliable<br>person in the world","unreliable","reliable","person","positive","lexant","female","the most flaky<br>person in the world",0.75
35,5974,"one_slider",5,"Cameron","mean","friendly","the most friendly<br>person in the world","unfriendly","not friendly","person","neg_positive","lexant","male","the most mean<br>person in the world",0.25
35,6398,"one_slider",6,"Greg","ugly","attractive","the most attractive<br>person in the world","unattractive","ugly","person","lexant","lexant","male","the most ugly<br>person in the world",0.27
35,5198,"one_slider",7,"Angela","crazy","rational","the most rational<br>person in the world","irrational","not crazy","person","neg_lexant","lexant","female","the most crazy<br>person in the world",0.53
35,8006,"one_slider",8,"Anthony","deceitful","honest","the most honest<br>person in the world","dishonest","not deceitful","person","neg_lexant","lexant","male","the most deceitful<br>person in the world",0.58
35,4991,"one_slider",9,"Laura","ignorant","educated","the most educated<br>person in the world","uneducated","educated","person","positive","lexant","female","the most ignorant<br>person in the world",0.73
35,3310,"one_slider",10,"Lucas","stingy","generous","the most generous<br>person in the world","ungenerous","stingy","person","lexant","lexant","male","the most stingy<br>person in the world",0.22
35,3646,"one_slider",11,"Eric","stupid","intelligent","the most intelligent<br>person in the world","unintelligent","intelligent","person","positive","lexant","male","the most stupid<br>person in the world",0.77
35,3182,"one_slider",12,"Lee","cold","affectionate","the most affectionate<br>person in the world","unaffectionate","not affectionate","person","neg_positive","lexant","male","the most cold<br>person in the world",0.74
36,7675,"one_slider",1,"Alicia","lazy","ambitious","the most ambitious<br>person in the world","unambitious","lazy","person","lexant","lexant","female","the most lazy<br>person in the world",0.17
36,7136,"one_slider",2,"Melinda","stingy","generous","the most generous<br>person in the world","ungenerous","stingy","person","lexant","lexant","female","the most stingy<br>person in the world",0.28
36,3489,"one_slider",3,"Stephen","flaky","reliable","the most reliable<br>person in the world","unreliable","reliable","person","positive","lexant","male","the most flaky<br>person in the world",0.67
36,3571,"one_slider",4,"David","boring","interesting","the most interesting<br>person in the world","uninteresting","interesting","person","positive","lexant","male","the most boring<br>person in the world",0.62
36,5524,"one_slider",5,"Kim","mean","friendly","the most friendly<br>person in the world","unfriendly","friendly","person","positive","lexant","female","the most mean<br>person in the world",0.78
36,4754,"one_slider",6,"William","resentful","forgiving","the most forgiving<br>person in the world","unforgiving","not forgiving","person","neg_positive","lexant","male","the most resentful<br>person in the world",0.19
36,8473,"one_slider",7,"Kathleen","bigoted","tolerant","the most tolerant<br>person in the world","intolerant","not bigoted","person","neg_lexant","lexant","female","the most bigoted<br>person in the world",0.4
36,6554,"one_slider",8,"Julia","rude","polite","the most polite<br>person in the world","impolite","not polite","person","neg_positive","lexant","female","the most rude<br>person in the world",0.34
36,4962,"one_slider",9,"Cameron","cold","affectionate","the most affectionate<br>person in the world","unaffectionate","cold","person","lexant","lexant","male","the most cold<br>person in the world",0.35
36,3797,"one_slider",10,"Tom","childish","mature","the most mature<br>person in the world","immature","not childish","person","neg_lexant","lexant","male","the most childish<br>person in the world",0.64
36,3996,"one_slider",11,"Monica","crazy","rational","the most rational<br>person in the world","irrational","not rational","person","neg_positive","lexant","female","the most crazy<br>person in the world",0.35
36,4222,"one_slider",12,"Greg","ignorant","educated","the most educated<br>person in the world","uneducated","not ignorant","person","neg_lexant","lexant","male","the most ignorant<br>person in the world",0.7
37,7828,"one_slider",1,"Maya","crazy","rational","the most rational<br>person in the world","irrational","rational","person","positive","lexant","female","the most crazy<br>person in the world",0.62
37,4159,"one_slider",2,"Claire","stupid","intelligent","the most intelligent<br>person in the world","unintelligent","intelligent","person","positive","lexant","female","the most stupid<br>person in the world",0.55
37,4426,"one_slider",3,"William","ignorant","educated","the most educated<br>person in the world","uneducated","ignorant","person","lexant","lexant","male","the most ignorant<br>person in the world",0.31
37,4802,"one_slider",4,"Angela","fake","sincere","the most sincere<br>person in the world","insincere","fake","person","lexant","lexant","female","the most fake<br>person in the world",0.37
37,5421,"one_slider",5,"Laura","rude","polite","the most polite<br>person in the world","impolite","not rude","person","neg_lexant","lexant","female","the most rude<br>person in the world",0.52
37,4590,"one_slider",6,"Anthony","sad","happy","the most happy<br>person in the world","unhappy","not happy","person","neg_positive","lexant","male","the most sad<br>person in the world",0.39
37,5406,"one_slider",7,"David","stingy","generous","the most generous<br>person in the world","ungenerous","generous","person","positive","lexant","male","the most stingy<br>person in the world",0.62
37,7442,"one_slider",8,"Daniel","childish","mature","the most mature<br>person in the world","immature","not childish","person","neg_lexant","lexant","male","the most childish<br>person in the world",0.41
37,4876,"one_slider",9,"Stephanie","mean","friendly","the most friendly<br>person in the world","unfriendly","mean","person","lexant","lexant","female","the most mean<br>person in the world",0.29
37,7597,"one_slider",10,"Monica","wasteful","resourceful","the most resourceful<br>person in the world","unresourceful","not resourceful","person","neg_positive","lexant","female","the most wasteful<br>person in the world",0.35
37,6048,"one_slider",11,"John","bigoted","tolerant","the most tolerant<br>person in the world","intolerant","not tolerant","person","neg_positive","lexant","male","the most bigoted<br>person in the world",0.17
37,8453,"one_slider",12,"Sophia","ugly","attractive","the most attractive<br>person in the world","unattractive","not ugly","person","neg_lexant","lexant","female","the most ugly<br>person in the world",0.48
38,8551,"one_slider",1,"Anthony","wasteful","resourceful","the most resourceful<br>person in the world","unresourceful","resourceful","person","positive","lexant","male","the most wasteful<br>person in the world",0.67
38,6063,"one_slider",2,"Melinda","fake","sincere","the most sincere<br>person in the world","insincere","not fake","person","neg_lexant","lexant","female","the most fake<br>person in the world",0.71
38,3175,"one_slider",3,"Stephen","resentful","forgiving","the most forgiving<br>person in the world","unforgiving","forgiving","person","positive","lexant","male","the most resentful<br>person in the world",0.68
38,4176,"one_slider",4,"Claire","crazy","rational","the most rational<br>person in the world","irrational","not rational","person","neg_positive","lexant","female","the most crazy<br>person in the world",0.31
38,3367,"one_slider",5,"Michael","ugly","attractive","the most attractive<br>person in the world","unattractive","ugly","person","lexant","lexant","male","the most ugly<br>person in the world",0.28
38,4423,"one_slider",6,"Monica","flaky","reliable","the most reliable<br>person in the world","unreliable","not reliable","person","neg_positive","lexant","female","the most flaky<br>person in the world",0.27
38,3847,"one_slider",7,"Eric","cold","affectionate","the most affectionate<br>person in the world","unaffectionate","cold","person","lexant","lexant","male","the most cold<br>person in the world",0.27
38,2863,"one_slider",8,"Kim","lazy","ambitious","the most ambitious<br>person in the world","unambitious","not ambitious","person","neg_positive","lexant","female","the most lazy<br>person in the world",0.28
38,24440,"one_slider",9,"Michelle","mean","friendly","the most friendly<br>person in the world","unfriendly","mean","person","lexant","lexant","female","the most mean<br>person in the world",0.27
38,43767,"one_slider",10,"Alexander","boring","interesting","the most interesting<br>person in the world","uninteresting","not boring","person","neg_lexant","lexant","male","the most boring<br>person in the world",0.65
38,3232,"one_slider",11,"John","cruel","kind","the most kind<br>person in the world","unkind","kind","person","positive","lexant","male","the most cruel<br>person in the world",0.75
38,5104,"one_slider",12,"Kathleen","traitorous","patriotic","the most patriotic<br>person in the world","unpatriotic","not traitorous","person","neg_lexant","lexant","female","the most traitorous<br>person in the world",0.73
39,7587,"one_slider",1,"Anthony","ignorant","educated","the most educated<br>person in the world","uneducated","not ignorant","person","neg_lexant","lexant","male","the most ignorant<br>person in the world",0.57
39,4262,"one_slider",2,"Alexander","cruel","kind","the most kind<br>person in the world","unkind","not cruel","person","neg_lexant","lexant","male","the most cruel<br>person in the world",0.66
39,3783,"one_slider",3,"David","bigoted","tolerant","the most tolerant<br>person in the world","intolerant","tolerant","person","positive","lexant","male","the most bigoted<br>person in the world",0.78
39,1992,"one_slider",4,"Cameron","cold","affectionate","the most affectionate<br>person in the world","unaffectionate","affectionate","person","positive","lexant","male","the most cold<br>person in the world",0.73
39,3620,"one_slider",5,"Lee","stingy","generous","the most generous<br>person in the world","ungenerous","not stingy","person","neg_lexant","lexant","male","the most stingy<br>person in the world",0.58
39,3346,"one_slider",6,"Daniel","stupid","intelligent","the most intelligent<br>person in the world","unintelligent","not intelligent","person","neg_positive","lexant","male","the most stupid<br>person in the world",0.31
39,2966,"one_slider",7,"Claire","traitorous","patriotic","the most patriotic<br>person in the world","unpatriotic","not patriotic","person","neg_positive","lexant","female","the most traitorous<br>person in the world",0.36
39,3816,"one_slider",8,"Angela","resentful","forgiving","the most forgiving<br>person in the world","unforgiving","resentful","person","lexant","lexant","female","the most resentful<br>person in the world",0.25
39,4952,"one_slider",9,"Veronica","sad","happy","the most happy<br>person in the world","unhappy","not happy","person","neg_positive","lexant","female","the most sad<br>person in the world",0.28
39,2712,"one_slider",10,"Alicia","fake","sincere","the most sincere<br>person in the world","insincere","fake","person","lexant","lexant","female","the most fake<br>person in the world",0.2
39,3064,"one_slider",11,"Kathleen","ugly","attractive","the most attractive<br>person in the world","unattractive","attractive","person","positive","lexant","female","the most ugly<br>person in the world",0.74
39,2487,"one_slider",12,"John","deceitful","honest","the most honest<br>person in the world","dishonest","deceitful","person","lexant","lexant","male","the most deceitful<br>person in the world",0.24
40,10912,"one_slider",1,"Stephen","deceitful","honest","the most honest<br>person in the world","dishonest","not deceitful","person","neg_lexant","lexant","male","the most deceitful<br>person in the world",0.79
40,9267,"one_slider",2,"Julia","bigoted","tolerant","the most tolerant<br>person in the world","intolerant","tolerant","person","positive","lexant","female","the most bigoted<br>person in the world",0.74
40,11969,"one_slider",3,"Claire","lazy","ambitious","the most ambitious<br>person in the world","unambitious","not ambitious","person","neg_positive","lexant","female","the most lazy<br>person in the world",0.22
40,13304,"one_slider",4,"Jennifer","fake","sincere","the most sincere<br>person in the world","insincere","fake","person","lexant","lexant","female","the most fake<br>person in the world",0.14
40,26420,"one_slider",5,"Eric","cold","affectionate","the most affectionate<br>person in the world","unaffectionate","cold","person","lexant","lexant","male","the most cold<br>person in the world",0.21
40,10301,"one_slider",6,"Michelle","stingy","generous","the most generous<br>person in the world","ungenerous","generous","person","positive","lexant","female","the most stingy<br>person in the world",0.77
40,6115,"one_slider",7,"Stephanie","mean","friendly","the most friendly<br>person in the world","unfriendly","friendly","person","positive","lexant","female","the most mean<br>person in the world",0.74
