"workerid","rt","trial_type","trial_num","name","response","gender","endpoint_high","negation","endpoint_low","sentence_type","adjective","referent","positive","superlative_endpoints","slider_position","antonym"
0,12774,"four_sliders",1,"Alexander",0.33,"male","most undefined","morphological","most undefined","neg_positive","not polite","person","polite",0,1,"impolite"
0,12774,"four_sliders",1,"Michael",0.54,"male","most undefined","morphological","most undefined","neg_antonym","not impolite","person","polite",0,2,"impolite"
0,12774,"four_sliders",1,"Kathleen",0,"female","most undefined","morphological","most undefined","antonym","impolite","person","polite",0,3,"impolite"
0,12774,"four_sliders",1,"Jeremy",1,"male","most undefined","morphological","most undefined","positive","polite","person","polite",0,4,"impolite"
0,8024,"four_sliders",2,"Daniel",0.48,"male","most undefined","morphological","most undefined","neg_antonym","not unintelligent","person","intelligent",0,1,"unintelligent"
0,8024,"four_sliders",2,"Michelle",0,"female","most undefined","morphological","most undefined","antonym","unintelligent","person","intelligent",0,2,"unintelligent"
0,8024,"four_sliders",2,"Cameron",0.49,"male","most undefined","morphological","most undefined","neg_positive","not intelligent","person","intelligent",0,3,"unintelligent"
0,8024,"four_sliders",2,"Julia",1,"female","most undefined","morphological","most undefined","positive","intelligent","person","intelligent",0,4,"unintelligent"
0,4839,"four_sliders",3,"Tom",0.47,"male","most undefined","morphological","most undefined","neg_positive","not mature","person","mature",0,1,"immature"
0,4839,"four_sliders",3,"Alison",0,"female","most undefined","morphological","most undefined","antonym","immature","person","mature",0,2,"immature"
0,4839,"four_sliders",3,"Greg",0.37,"male","most undefined","morphological","most undefined","neg_antonym","not immature","person","mature",0,3,"immature"
0,4839,"four_sliders",3,"Stephanie",1,"female","most undefined","morphological","most undefined","positive","mature","person","mature",0,4,"immature"
0,8936,"four_sliders",4,"Andrew",0.41,"male","most undefined","morphological","most undefined","neg_antonym","not unfriendly","person","friendly",0,1,"unfriendly"
0,8936,"four_sliders",4,"Sasha",0,"female","most undefined","morphological","most undefined","antonym","unfriendly","person","friendly",0,2,"unfriendly"
0,8936,"four_sliders",4,"Gabriel",1,"male","most undefined","morphological","most undefined","positive","friendly","person","friendly",0,3,"unfriendly"
0,8936,"four_sliders",4,"John",0.21,"male","most undefined","morphological","most undefined","neg_positive","not friendly","person","friendly",0,4,"unfriendly"
0,6927,"four_sliders",5,"Lee",0,"male","most undefined","morphological","most undefined","antonym","unhappy","person","happy",0,1,"unhappy"
0,6927,"four_sliders",5,"Dylan",0.47,"male","most undefined","morphological","most undefined","neg_antonym","not unhappy","person","happy",0,2,"unhappy"
0,6927,"four_sliders",5,"Kim",1,"female","most undefined","morphological","most undefined","positive","happy","person","happy",0,3,"unhappy"
0,6927,"four_sliders",5,"Samuel",0.23,"male","most undefined","morphological","most undefined","neg_positive","not happy","person","happy",0,4,"unhappy"
0,8759,"four_sliders",6,"Claire",0.38,"female","most undefined","morphological","most undefined","neg_antonym","not unsuccessful","person","successful",0,1,"unsuccessful"
0,8759,"four_sliders",6,"Veronica",0,"female","most undefined","morphological","most undefined","antonym","unsuccessful","person","successful",0,2,"unsuccessful"
0,8759,"four_sliders",6,"David",0.14,"male","most undefined","morphological","most undefined","neg_positive","not successful","person","successful",0,3,"unsuccessful"
0,8759,"four_sliders",6,"Stephen",1,"male","most undefined","morphological","most undefined","positive","successful","person","successful",0,4,"unsuccessful"
0,6240,"four_sliders",7,"Anthony",0.32,"male","most undefined","morphological","most undefined","neg_antonym","not dishonest","person","honest",0,1,"dishonest"
0,6240,"four_sliders",7,"Lucas",1,"male","most undefined","morphological","most undefined","positive","honest","person","honest",0,2,"dishonest"
0,6240,"four_sliders",7,"William",0,"male","most undefined","morphological","most undefined","antonym","dishonest","person","honest",0,3,"dishonest"
0,6240,"four_sliders",7,"Sophia",0.15,"female","most undefined","morphological","most undefined","neg_positive","not honest","person","honest",0,4,"dishonest"
0,10560,"four_sliders",8,"Monica",0,"female","most undefined","morphological","most undefined","antonym","uneducated","person","educated",0,1,"uneducated"
0,10560,"four_sliders",8,"Emma",0.37,"female","most undefined","morphological","most undefined","neg_positive","not educated","person","educated",0,2,"uneducated"
0,10560,"four_sliders",8,"Melinda",0.51,"female","most undefined","morphological","most undefined","neg_antonym","not uneducated","person","educated",0,3,"uneducated"
0,10560,"four_sliders",8,"Eric",1,"male","most undefined","morphological","most undefined","positive","educated","person","educated",0,4,"uneducated"
0,14328,"four_sliders",9,"Mia",0.74,"female","most undefined","morphological","most undefined","neg_antonym","not unattractive","person","attractive",0,1,"unattractive"
0,14328,"four_sliders",9,"Maya",1,"female","most undefined","morphological","most undefined","positive","attractive","person","attractive",0,2,"unattractive"
0,14328,"four_sliders",9,"Alicia",0,"female","most undefined","morphological","most undefined","antonym","unattractive","person","attractive",0,3,"unattractive"
0,14328,"four_sliders",9,"Diana",0.07,"female","most undefined","morphological","most undefined","neg_positive","not attractive","person","attractive",0,4,"unattractive"
0,13159,"four_sliders",10,"Charles",0.48,"male","most undefined","morphological","most undefined","neg_antonym","not uninteresting","person","interesting",0,1,"uninteresting"
0,13159,"four_sliders",10,"Laura",0,"female","most undefined","morphological","most undefined","antonym","uninteresting","person","interesting",0,2,"uninteresting"
0,13159,"four_sliders",10,"Jennifer",0.16,"female","most undefined","morphological","most undefined","neg_positive","not interesting","person","interesting",0,3,"uninteresting"
0,13159,"four_sliders",10,"Angela",1,"female","most undefined","morphological","most undefined","positive","interesting","person","interesting",0,4,"uninteresting"
1,17619,"four_sliders",1,"Andrew",0.3,"male","most undefined","morphological","most undefined","neg_positive","not mature","person","mature",0,1,"immature"
1,17619,"four_sliders",1,"John",0.77,"male","most undefined","morphological","most undefined","positive","mature","person","mature",0,2,"immature"
1,17619,"four_sliders",1,"Stephen",0.52,"male","most undefined","morphological","most undefined","neg_antonym","not immature","person","mature",0,3,"immature"
1,17619,"four_sliders",1,"Angela",0.36,"female","most undefined","morphological","most undefined","antonym","immature","person","mature",0,4,"immature"
1,11663,"four_sliders",2,"Kathleen",0.9,"female","most undefined","morphological","most undefined","positive","educated","person","educated",0,1,"uneducated"
1,11663,"four_sliders",2,"Cameron",0.22,"male","most undefined","morphological","most undefined","neg_positive","not educated","person","educated",0,2,"uneducated"
1,11663,"four_sliders",2,"Samuel",0.5,"male","most undefined","morphological","most undefined","neg_antonym","not uneducated","person","educated",0,3,"uneducated"
1,11663,"four_sliders",2,"Maya",0.23,"female","most undefined","morphological","most undefined","antonym","uneducated","person","educated",0,4,"uneducated"
1,7671,"four_sliders",3,"Alexander",0.3,"male","most undefined","morphological","most undefined","neg_positive","not polite","person","polite",0,1,"impolite"
1,7671,"four_sliders",3,"Tom",0.47,"male","most undefined","morphological","most undefined","neg_antonym","not impolite","person","polite",0,2,"impolite"
1,7671,"four_sliders",3,"Daniel",0.21,"male","most undefined","morphological","most undefined","antonym","impolite","person","polite",0,3,"impolite"
1,7671,"four_sliders",3,"Julia",0.8,"female","most undefined","morphological","most undefined","positive","polite","person","polite",0,4,"impolite"
1,8309,"four_sliders",4,"Stephanie",0.26,"female","most undefined","morphological","most undefined","neg_positive","not interesting","person","interesting",0,1,"uninteresting"
1,8309,"four_sliders",4,"Alison",0.78,"female","most undefined","morphological","most undefined","positive","interesting","person","interesting",0,2,"uninteresting"
1,8309,"four_sliders",4,"Monica",0.51,"female","most undefined","morphological","most undefined","neg_antonym","not uninteresting","person","interesting",0,3,"uninteresting"
1,8309,"four_sliders",4,"Sophia",0.36,"female","most undefined","morphological","most undefined","antonym","uninteresting","person","interesting",0,4,"uninteresting"
1,8047,"four_sliders",5,"Lee",0.28,"male","most undefined","morphological","most undefined","neg_positive","not successful","person","successful",0,1,"unsuccessful"
1,8047,"four_sliders",5,"Emma",0.24,"female","most undefined","morphological","most undefined","antonym","unsuccessful","person","successful",0,2,"unsuccessful"
1,8047,"four_sliders",5,"David",0.85,"male","most undefined","morphological","most undefined","positive","successful","person","successful",0,3,"unsuccessful"
1,8047,"four_sliders",5,"Eric",0.51,"male","most undefined","morphological","most undefined","neg_antonym","not unsuccessful","person","successful",0,4,"unsuccessful"
1,8355,"four_sliders",6,"Jeremy",0.35,"male","most undefined","morphological","most undefined","neg_positive","not friendly","person","friendly",0,1,"unfriendly"
1,8355,"four_sliders",6,"Dylan",0.31,"male","most undefined","morphological","most undefined","antonym","unfriendly","person","friendly",0,2,"unfriendly"
1,8355,"four_sliders",6,"Mia",0.84,"female","most undefined","morphological","most undefined","positive","friendly","person","friendly",0,3,"unfriendly"
1,8355,"four_sliders",6,"Veronica",0.5,"female","most undefined","morphological","most undefined","neg_antonym","not unfriendly","person","friendly",0,4,"unfriendly"
1,7335,"four_sliders",7,"Gabriel",0.47,"male","most undefined","morphological","most undefined","neg_antonym","not unhappy","person","happy",0,1,"unhappy"
1,7335,"four_sliders",7,"Michael",0.88,"male","most undefined","morphological","most undefined","positive","happy","person","happy",0,2,"unhappy"
1,7335,"four_sliders",7,"Melinda",0.32,"female","most undefined","morphological","most undefined","neg_positive","not happy","person","happy",0,3,"unhappy"
1,7335,"four_sliders",7,"Jennifer",0.27,"female","most undefined","morphological","most undefined","antonym","unhappy","person","happy",0,4,"unhappy"
1,6153,"four_sliders",8,"Lucas",0.27,"male","most undefined","morphological","most undefined","antonym","unattractive","person","attractive",0,1,"unattractive"
1,6153,"four_sliders",8,"Greg",0.28,"male","most undefined","morphological","most undefined","neg_antonym","not unattractive","person","attractive",0,2,"unattractive"
1,6153,"four_sliders",8,"Anthony",0.82,"male","most undefined","morphological","most undefined","positive","attractive","person","attractive",0,3,"unattractive"
1,6153,"four_sliders",8,"Claire",0.5,"female","most undefined","morphological","most undefined","neg_positive","not attractive","person","attractive",0,4,"unattractive"
1,15123,"four_sliders",9,"Laura",0.52,"female","most undefined","morphological","most undefined","neg_antonym","not dishonest","person","honest",0,1,"dishonest"
1,15123,"four_sliders",9,"Michelle",0.27,"female","most undefined","morphological","most undefined","neg_positive","not honest","person","honest",0,2,"dishonest"
1,15123,"four_sliders",9,"Diana",0.24,"female","most undefined","morphological","most undefined","antonym","dishonest","person","honest",0,3,"dishonest"
1,15123,"four_sliders",9,"William",0.84,"male","most undefined","morphological","most undefined","positive","honest","person","honest",0,4,"dishonest"
1,7781,"four_sliders",10,"Kim",0.3,"female","most undefined","morphological","most undefined","antonym","unintelligent","person","intelligent",0,1,"unintelligent"
1,7781,"four_sliders",10,"Alicia",0.27,"female","most undefined","morphological","most undefined","neg_positive","not intelligent","person","intelligent",0,2,"unintelligent"
1,7781,"four_sliders",10,"Charles",0.82,"male","most undefined","morphological","most undefined","positive","intelligent","person","intelligent",0,3,"unintelligent"
1,7781,"four_sliders",10,"Sasha",0.51,"female","most undefined","morphological","most undefined","neg_antonym","not unintelligent","person","intelligent",0,4,"unintelligent"
2,13682,"four_sliders",1,"David",0.25,"male","most undefined","morphological","most undefined","antonym","dishonest","person","honest",0,1,"dishonest"
2,13682,"four_sliders",1,"Anthony",0.67,"male","most undefined","morphological","most undefined","neg_antonym","not dishonest","person","honest",0,2,"dishonest"
2,13682,"four_sliders",1,"Kathleen",0.86,"female","most undefined","morphological","most undefined","positive","honest","person","honest",0,3,"dishonest"
2,13682,"four_sliders",1,"John",0.3,"male","most undefined","morphological","most undefined","neg_positive","not honest","person","honest",0,4,"dishonest"
2,14505,"four_sliders",2,"Alexander",0.69,"male","most undefined","morphological","most undefined","neg_antonym","not impolite","person","polite",0,1,"impolite"
2,14505,"four_sliders",2,"Jennifer",0.29,"female","most undefined","morphological","most undefined","neg_positive","not polite","person","polite",0,2,"impolite"
2,14505,"four_sliders",2,"Julia",0.22,"female","most undefined","morphological","most undefined","antonym","impolite","person","polite",0,3,"impolite"
2,14505,"four_sliders",2,"Kim",0.88,"female","most undefined","morphological","most undefined","positive","polite","person","polite",0,4,"impolite"
2,8004,"four_sliders",3,"Lucas",0.83,"male","most undefined","morphological","most undefined","positive","mature","person","mature",0,1,"immature"
2,8004,"four_sliders",3,"Veronica",0.76,"female","most undefined","morphological","most undefined","neg_antonym","not immature","person","mature",0,2,"immature"
2,8004,"four_sliders",3,"Samuel",0.18,"male","most undefined","morphological","most undefined","antonym","immature","person","mature",0,3,"immature"
2,8004,"four_sliders",3,"Maya",0.22,"female","most undefined","morphological","most undefined","neg_positive","not mature","person","mature",0,4,"immature"
2,12084,"four_sliders",4,"Stephanie",0.17,"female","most undefined","morphological","most undefined","neg_positive","not happy","person","happy",0,1,"unhappy"
2,12084,"four_sliders",4,"Angela",0.82,"female","most undefined","morphological","most undefined","neg_antonym","not unhappy","person","happy",0,2,"unhappy"
2,12084,"four_sliders",4,"Tom",0.92,"male","most undefined","morphological","most undefined","positive","happy","person","happy",0,3,"unhappy"
2,12084,"four_sliders",4,"Diana",0.24,"female","most undefined","morphological","most undefined","antonym","unhappy","person","happy",0,4,"unhappy"
2,11090,"four_sliders",5,"Lee",0.71,"male","most undefined","morphological","most undefined","neg_antonym","not unfriendly","person","friendly",0,1,"unfriendly"
2,11090,"four_sliders",5,"Jeremy",0.92,"male","most undefined","morphological","most undefined","positive","friendly","person","friendly",0,2,"unfriendly"
2,11090,"four_sliders",5,"Andrew",0.14,"male","most undefined","morphological","most undefined","antonym","unfriendly","person","friendly",0,3,"unfriendly"
2,11090,"four_sliders",5,"Claire",0.1,"female","most undefined","morphological","most undefined","neg_positive","not friendly","person","friendly",0,4,"unfriendly"
2,19200,"four_sliders",6,"Michelle",0.14,"female","most undefined","morphological","most undefined","antonym","uninteresting","person","interesting",0,1,"uninteresting"
2,19200,"four_sliders",6,"Daniel",0.77,"male","most undefined","morphological","most undefined","neg_antonym","not uninteresting","person","interesting",0,2,"uninteresting"
2,19200,"four_sliders",6,"William",0.91,"male","most undefined","morphological","most undefined","positive","interesting","person","interesting",0,3,"uninteresting"
2,19200,"four_sliders",6,"Sasha",0.11,"female","most undefined","morphological","most undefined","neg_positive","not interesting","person","interesting",0,4,"uninteresting"
2,9334,"four_sliders",7,"Emma",0.18,"female","most undefined","morphological","most undefined","neg_positive","not successful","person","successful",0,1,"unsuccessful"
2,9334,"four_sliders",7,"Stephen",0.93,"male","most undefined","morphological","most undefined","positive","successful","person","successful",0,2,"unsuccessful"
2,9334,"four_sliders",7,"Alison",0.09,"female","most undefined","morphological","most undefined","antonym","unsuccessful","person","successful",0,3,"unsuccessful"
2,9334,"four_sliders",7,"Monica",0.85,"female","most undefined","morphological","most undefined","neg_antonym","not unsuccessful","person","successful",0,4,"unsuccessful"
2,10312,"four_sliders",8,"Alicia",0.86,"female","most undefined","morphological","most undefined","positive","intelligent","person","intelligent",0,1,"unintelligent"
2,10312,"four_sliders",8,"Michael",0.12,"male","most undefined","morphological","most undefined","neg_positive","not intelligent","person","intelligent",0,2,"unintelligent"
2,10312,"four_sliders",8,"Laura",0.78,"female","most undefined","morphological","most undefined","neg_antonym","not unintelligent","person","intelligent",0,3,"unintelligent"
2,10312,"four_sliders",8,"Mia",0.08,"female","most undefined","morphological","most undefined","antonym","unintelligent","person","intelligent",0,4,"unintelligent"
2,6468,"four_sliders",9,"Cameron",0.85,"male","most undefined","morphological","most undefined","positive","attractive","person","attractive",0,1,"unattractive"
2,6468,"four_sliders",9,"Gabriel",0.11,"male","most undefined","morphological","most undefined","neg_positive","not attractive","person","attractive",0,2,"unattractive"
2,6468,"four_sliders",9,"Charles",0.07,"male","most undefined","morphological","most undefined","antonym","unattractive","person","attractive",0,3,"unattractive"
2,6468,"four_sliders",9,"Sophia",0.77,"female","most undefined","morphological","most undefined","neg_antonym","not unattractive","person","attractive",0,4,"unattractive"
2,11837,"four_sliders",10,"Dylan",0.16,"male","most undefined","morphological","most undefined","antonym","uneducated","person","educated",0,1,"uneducated"
2,11837,"four_sliders",10,"Greg",0.79,"male","most undefined","morphological","most undefined","neg_antonym","not uneducated","person","educated",0,2,"uneducated"
2,11837,"four_sliders",10,"Melinda",0.08,"female","most undefined","morphological","most undefined","neg_positive","not educated","person","educated",0,3,"uneducated"
2,11837,"four_sliders",10,"Eric",0.89,"male","most undefined","morphological","most undefined","positive","educated","person","educated",0,4,"uneducated"
3,31664,"four_sliders",1,"Dylan",0.76,"male","most undefined","morphological","most undefined","neg_antonym","not unsuccessful","person","successful",0,1,"unsuccessful"
3,31664,"four_sliders",1,"Emma",0,"female","most undefined","morphological","most undefined","antonym","unsuccessful","person","successful",0,2,"unsuccessful"
3,31664,"four_sliders",1,"Andrew",0.21,"male","most undefined","morphological","most undefined","neg_positive","not successful","person","successful",0,3,"unsuccessful"
3,31664,"four_sliders",1,"William",1,"male","most undefined","morphological","most undefined","positive","successful","person","successful",0,4,"unsuccessful"
3,7994,"four_sliders",2,"Michelle",0.35,"female","most undefined","morphological","most undefined","neg_positive","not educated","person","educated",0,1,"uneducated"
3,7994,"four_sliders",2,"Kathleen",0.63,"female","most undefined","morphological","most undefined","neg_antonym","not uneducated","person","educated",0,2,"uneducated"
3,7994,"four_sliders",2,"Samuel",0,"male","most undefined","morphological","most undefined","antonym","uneducated","person","educated",0,3,"uneducated"
3,7994,"four_sliders",2,"Mia",1,"female","most undefined","morphological","most undefined","positive","educated","person","educated",0,4,"uneducated"
3,11577,"four_sliders",3,"Jeremy",0.25,"male","most undefined","morphological","most undefined","neg_positive","not friendly","person","friendly",0,1,"unfriendly"
3,11577,"four_sliders",3,"Monica",1,"female","most undefined","morphological","most undefined","positive","friendly","person","friendly",0,2,"unfriendly"
3,11577,"four_sliders",3,"Alicia",0.7,"female","most undefined","morphological","most undefined","neg_antonym","not unfriendly","person","friendly",0,3,"unfriendly"
3,11577,"four_sliders",3,"John",0,"male","most undefined","morphological","most undefined","antonym","unfriendly","person","friendly",0,4,"unfriendly"
3,6997,"four_sliders",4,"Anthony",1,"male","most undefined","morphological","most undefined","positive","mature","person","mature",0,1,"immature"
3,6997,"four_sliders",4,"Lee",0.68,"male","most undefined","morphological","most undefined","neg_antonym","not immature","person","mature",0,2,"immature"
3,6997,"four_sliders",4,"Alexander",0.24,"male","most undefined","morphological","most undefined","neg_positive","not mature","person","mature",0,3,"immature"
3,6997,"four_sliders",4,"Lucas",0,"male","most undefined","morphological","most undefined","antonym","immature","person","mature",0,4,"immature"
3,5615,"four_sliders",5,"Sophia",0,"female","most undefined","morphological","most undefined","antonym","impolite","person","polite",0,1,"impolite"
3,5615,"four_sliders",5,"Jennifer",0.25,"female","most undefined","morphological","most undefined","neg_positive","not polite","person","polite",0,2,"impolite"
3,5615,"four_sliders",5,"Stephanie",1,"female","most undefined","morphological","most undefined","positive","polite","person","polite",0,3,"impolite"
3,5615,"four_sliders",5,"Cameron",0.74,"male","most undefined","morphological","most undefined","neg_antonym","not impolite","person","polite",0,4,"impolite"
3,6793,"four_sliders",6,"Laura",1,"female","most undefined","morphological","most undefined","positive","attractive","person","attractive",0,1,"unattractive"
3,6793,"four_sliders",6,"Greg",0.27,"male","most undefined","morphological","most undefined","neg_positive","not attractive","person","attractive",0,2,"unattractive"
3,6793,"four_sliders",6,"David",0,"male","most undefined","morphological","most undefined","antonym","unattractive","person","attractive",0,3,"unattractive"
3,6793,"four_sliders",6,"Kim",0.73,"female","most undefined","morphological","most undefined","neg_antonym","not unattractive","person","attractive",0,4,"unattractive"
3,5475,"four_sliders",7,"Tom",0,"male","most undefined","morphological","most undefined","antonym","uninteresting","person","interesting",0,1,"uninteresting"
3,5475,"four_sliders",7,"Sasha",0.7,"female","most undefined","morphological","most undefined","neg_antonym","not uninteresting","person","interesting",0,2,"uninteresting"
3,5475,"four_sliders",7,"Julia",1,"female","most undefined","morphological","most undefined","positive","interesting","person","interesting",0,3,"uninteresting"
3,5475,"four_sliders",7,"Gabriel",0.21,"male","most undefined","morphological","most undefined","neg_positive","not interesting","person","interesting",0,4,"uninteresting"
3,8699,"four_sliders",8,"Diana",0.71,"female","most undefined","morphological","most undefined","neg_antonym","not unintelligent","person","intelligent",0,1,"unintelligent"
3,8699,"four_sliders",8,"Maya",0.19,"female","most undefined","morphological","most undefined","neg_positive","not intelligent","person","intelligent",0,2,"unintelligent"
3,8699,"four_sliders",8,"Veronica",0,"female","most undefined","morphological","most undefined","antonym","unintelligent","person","intelligent",0,3,"unintelligent"
3,8699,"four_sliders",8,"Claire",1,"female","most undefined","morphological","most undefined","positive","intelligent","person","intelligent",0,4,"unintelligent"
3,8280,"four_sliders",9,"Melinda",0.7,"female","most undefined","morphological","most undefined","neg_antonym","not unhappy","person","happy",0,1,"unhappy"
3,8280,"four_sliders",9,"Michael",1,"male","most undefined","morphological","most undefined","positive","happy","person","happy",0,2,"unhappy"
3,8280,"four_sliders",9,"Alison",0.23,"female","most undefined","morphological","most undefined","neg_positive","not happy","person","happy",0,3,"unhappy"
3,8280,"four_sliders",9,"Eric",0,"male","most undefined","morphological","most undefined","antonym","unhappy","person","happy",0,4,"unhappy"
3,7404,"four_sliders",10,"Stephen",0.19,"male","most undefined","morphological","most undefined","neg_positive","not honest","person","honest",0,1,"dishonest"
3,7404,"four_sliders",10,"Angela",0.71,"female","most undefined","morphological","most undefined","neg_antonym","not dishonest","person","honest",0,2,"dishonest"
3,7404,"four_sliders",10,"Daniel",0,"male","most undefined","morphological","most undefined","antonym","dishonest","person","honest",0,3,"dishonest"
3,7404,"four_sliders",10,"Charles",1,"male","most undefined","morphological","most undefined","positive","honest","person","honest",0,4,"dishonest"
4,48131,"four_sliders",1,"Kim",0.69,"female","most undefined","morphological","most undefined","neg_antonym","not impolite","person","polite",0,1,"impolite"
4,48131,"four_sliders",1,"Samuel",0.28,"male","most undefined","morphological","most undefined","antonym","impolite","person","polite",0,2,"impolite"
4,48131,"four_sliders",1,"Gabriel",0.06,"male","most undefined","morphological","most undefined","neg_positive","not polite","person","polite",0,3,"impolite"
4,48131,"four_sliders",1,"Jeremy",0.96,"male","most undefined","morphological","most undefined","positive","polite","person","polite",0,4,"impolite"
4,21199,"four_sliders",2,"Dylan",0.08,"male","most undefined","morphological","most undefined","antonym","immature","person","mature",0,1,"immature"
4,21199,"four_sliders",2,"Laura",0.29,"female","most undefined","morphological","most undefined","neg_positive","not mature","person","mature",0,2,"immature"
4,21199,"four_sliders",2,"William",0.66,"male","most undefined","morphological","most undefined","neg_antonym","not immature","person","mature",0,3,"immature"
4,21199,"four_sliders",2,"Jennifer",0.93,"female","most undefined","morphological","most undefined","positive","mature","person","mature",0,4,"immature"
4,17636,"four_sliders",3,"Kathleen",0.59,"female","most undefined","morphological","most undefined","neg_antonym","not unfriendly","person","friendly",0,1,"unfriendly"
4,17636,"four_sliders",3,"Alison",0.11,"female","most undefined","morphological","most undefined","antonym","unfriendly","person","friendly",0,2,"unfriendly"
4,17636,"four_sliders",3,"Lee",0.88,"male","most undefined","morphological","most undefined","positive","friendly","person","friendly",0,3,"unfriendly"
4,17636,"four_sliders",3,"Anthony",0.22,"male","most undefined","morphological","most undefined","neg_positive","not friendly","person","friendly",0,4,"unfriendly"
4,18927,"four_sliders",4,"Stephen",0.11,"male","most undefined","morphological","most undefined","antonym","unsuccessful","person","successful",0,1,"unsuccessful"
4,18927,"four_sliders",4,"Julia",0.24,"female","most undefined","morphological","most undefined","neg_positive","not successful","person","successful",0,2,"unsuccessful"
4,18927,"four_sliders",4,"Cameron",0.61,"male","most undefined","morphological","most undefined","neg_antonym","not unsuccessful","person","successful",0,3,"unsuccessful"
4,18927,"four_sliders",4,"Diana",0.9,"female","most undefined","morphological","most undefined","positive","successful","person","successful",0,4,"unsuccessful"
4,19852,"four_sliders",5,"Lucas",0.09,"male","most undefined","morphological","most undefined","antonym","unintelligent","person","intelligent",0,1,"unintelligent"
4,19852,"four_sliders",5,"Greg",0.94,"male","most undefined","morphological","most undefined","positive","intelligent","person","intelligent",0,2,"unintelligent"
4,19852,"four_sliders",5,"Melinda",0.63,"female","most undefined","morphological","most undefined","neg_antonym","not unintelligent","person","intelligent",0,3,"unintelligent"
4,19852,"four_sliders",5,"Claire",0.35,"female","most undefined","morphological","most undefined","neg_positive","not intelligent","person","intelligent",0,4,"unintelligent"
4,12898,"four_sliders",6,"Alicia",0.93,"female","most undefined","morphological","most undefined","positive","educated","person","educated",0,1,"uneducated"
4,12898,"four_sliders",6,"Daniel",0.71,"male","most undefined","morphological","most undefined","neg_antonym","not uneducated","person","educated",0,2,"uneducated"
4,12898,"four_sliders",6,"Charles",0.08,"male","most undefined","morphological","most undefined","antonym","uneducated","person","educated",0,3,"uneducated"
4,12898,"four_sliders",6,"Emma",0.34,"female","most undefined","morphological","most undefined","neg_positive","not educated","person","educated",0,4,"uneducated"
4,15166,"four_sliders",7,"Michelle",0.3,"female","most undefined","morphological","most undefined","neg_positive","not honest","person","honest",0,1,"dishonest"
4,15166,"four_sliders",7,"Michael",0.1,"male","most undefined","morphological","most undefined","antonym","dishonest","person","honest",0,2,"dishonest"
4,15166,"four_sliders",7,"Alexander",0.64,"male","most undefined","morphological","most undefined","neg_antonym","not dishonest","person","honest",0,3,"dishonest"
4,15166,"four_sliders",7,"David",0.91,"male","most undefined","morphological","most undefined","positive","honest","person","honest",0,4,"dishonest"
4,19816,"four_sliders",8,"Andrew",0.58,"male","most undefined","morphological","most undefined","neg_antonym","not unattractive","person","attractive",0,1,"unattractive"
4,19816,"four_sliders",8,"Stephanie",0.26,"female","most undefined","morphological","most undefined","neg_positive","not attractive","person","attractive",0,2,"unattractive"
4,19816,"four_sliders",8,"Monica",0.08,"female","most undefined","morphological","most undefined","antonym","unattractive","person","attractive",0,3,"unattractive"
4,19816,"four_sliders",8,"Sophia",0.89,"female","most undefined","morphological","most undefined","positive","attractive","person","attractive",0,4,"unattractive"
4,23540,"four_sliders",9,"Eric",0.1,"male","most undefined","morphological","most undefined","antonym","uninteresting","person","interesting",0,1,"uninteresting"
4,23540,"four_sliders",9,"Tom",0.57,"male","most undefined","morphological","most undefined","neg_antonym","not uninteresting","person","interesting",0,2,"uninteresting"
4,23540,"four_sliders",9,"Mia",0.89,"female","most undefined","morphological","most undefined","positive","interesting","person","interesting",0,3,"uninteresting"
4,23540,"four_sliders",9,"Sasha",0.23,"female","most undefined","morphological","most undefined","neg_positive","not interesting","person","interesting",0,4,"uninteresting"
4,19132,"four_sliders",10,"John",0.09,"male","most undefined","morphological","most undefined","antonym","unhappy","person","happy",0,1,"unhappy"
4,19132,"four_sliders",10,"Maya",0.29,"female","most undefined","morphological","most undefined","neg_positive","not happy","person","happy",0,2,"unhappy"
4,19132,"four_sliders",10,"Angela",0.62,"female","most undefined","morphological","most undefined","neg_antonym","not unhappy","person","happy",0,3,"unhappy"
4,19132,"four_sliders",10,"Veronica",0.91,"female","most undefined","morphological","most undefined","positive","happy","person","happy",0,4,"unhappy"
5,16844,"four_sliders",1,"Alicia",0.16,"female","most undefined","morphological","most undefined","neg_positive","not honest","person","honest",0,1,"dishonest"
5,16844,"four_sliders",1,"Michael",0.54,"male","most undefined","morphological","most undefined","neg_antonym","not dishonest","person","honest",0,2,"dishonest"
5,16844,"four_sliders",1,"Veronica",0.76,"female","most undefined","morphological","most undefined","positive","honest","person","honest",0,3,"dishonest"
5,16844,"four_sliders",1,"Diana",0.02,"female","most undefined","morphological","most undefined","antonym","dishonest","person","honest",0,4,"dishonest"
5,11440,"four_sliders",2,"Samuel",0.45,"male","most undefined","morphological","most undefined","neg_positive","not intelligent","person","intelligent",0,1,"unintelligent"
5,11440,"four_sliders",2,"Maya",0.59,"female","most undefined","morphological","most undefined","neg_antonym","not unintelligent","person","intelligent",0,2,"unintelligent"
5,11440,"four_sliders",2,"Lucas",0.15,"male","most undefined","morphological","most undefined","antonym","unintelligent","person","intelligent",0,3,"unintelligent"
5,11440,"four_sliders",2,"David",0.94,"male","most undefined","morphological","most undefined","positive","intelligent","person","intelligent",0,4,"unintelligent"
5,22198,"four_sliders",3,"Charles",0.88,"male","most undefined","morphological","most undefined","positive","educated","person","educated",0,1,"uneducated"
5,22198,"four_sliders",3,"Monica",0.66,"female","most undefined","morphological","most undefined","neg_antonym","not uneducated","person","educated",0,2,"uneducated"
5,22198,"four_sliders",3,"Sophia",0.3,"female","most undefined","morphological","most undefined","neg_positive","not educated","person","educated",0,3,"uneducated"
5,22198,"four_sliders",3,"Claire",0.08,"female","most undefined","morphological","most undefined","antonym","uneducated","person","educated",0,4,"uneducated"
5,9788,"four_sliders",4,"Alexander",0.88,"male","most undefined","morphological","most undefined","positive","attractive","person","attractive",0,1,"unattractive"
5,9788,"four_sliders",4,"Melinda",0.42,"female","most undefined","morphological","most undefined","neg_positive","not attractive","person","attractive",0,2,"unattractive"
5,9788,"four_sliders",4,"Emma",0.13,"female","most undefined","morphological","most undefined","antonym","unattractive","person","attractive",0,3,"unattractive"
5,9788,"four_sliders",4,"Michelle",0.65,"female","most undefined","morphological","most undefined","neg_antonym","not unattractive","person","attractive",0,4,"unattractive"
5,10015,"four_sliders",5,"Stephen",0.87,"male","most undefined","morphological","most undefined","positive","happy","person","happy",0,1,"unhappy"
5,10015,"four_sliders",5,"Jeremy",0.3,"male","most undefined","morphological","most undefined","neg_positive","not happy","person","happy",0,2,"unhappy"
5,10015,"four_sliders",5,"Jennifer",0.01,"female","most undefined","morphological","most undefined","antonym","unhappy","person","happy",0,3,"unhappy"
5,10015,"four_sliders",5,"Laura",0.64,"female","most undefined","morphological","most undefined","neg_antonym","not unhappy","person","happy",0,4,"unhappy"
5,11614,"four_sliders",6,"Stephanie",0.89,"female","most undefined","morphological","most undefined","positive","friendly","person","friendly",0,1,"unfriendly"
5,11614,"four_sliders",6,"Cameron",0.06,"male","most undefined","morphological","most undefined","antonym","unfriendly","person","friendly",0,2,"unfriendly"
5,11614,"four_sliders",6,"John",0.39,"male","most undefined","morphological","most undefined","neg_antonym","not unfriendly","person","friendly",0,3,"unfriendly"
5,11614,"four_sliders",6,"Sasha",0.14,"female","most undefined","morphological","most undefined","neg_positive","not friendly","person","friendly",0,4,"unfriendly"
5,16571,"four_sliders",7,"Angela",0.57,"female","most undefined","morphological","most undefined","neg_antonym","not uninteresting","person","interesting",0,1,"uninteresting"
5,16571,"four_sliders",7,"Greg",0.13,"male","most undefined","morphological","most undefined","antonym","uninteresting","person","interesting",0,2,"uninteresting"
5,16571,"four_sliders",7,"Julia",0.82,"female","most undefined","morphological","most undefined","positive","interesting","person","interesting",0,3,"uninteresting"
5,16571,"four_sliders",7,"Gabriel",0.31,"male","most undefined","morphological","most undefined","neg_positive","not interesting","person","interesting",0,4,"uninteresting"
5,13286,"four_sliders",8,"Kathleen",0.38,"female","most undefined","morphological","most undefined","neg_positive","not mature","person","mature",0,1,"immature"
5,13286,"four_sliders",8,"Alison",0.86,"female","most undefined","morphological","most undefined","positive","mature","person","mature",0,2,"immature"
5,13286,"four_sliders",8,"Eric",0.1,"male","most undefined","morphological","most undefined","antonym","immature","person","mature",0,3,"immature"
5,13286,"four_sliders",8,"Daniel",0.66,"male","most undefined","morphological","most undefined","neg_antonym","not immature","person","mature",0,4,"immature"
5,10855,"four_sliders",9,"Dylan",0.46,"male","most undefined","morphological","most undefined","neg_positive","not successful","person","successful",0,1,"unsuccessful"
5,10855,"four_sliders",9,"William",0.61,"male","most undefined","morphological","most undefined","neg_antonym","not unsuccessful","person","successful",0,2,"unsuccessful"
5,10855,"four_sliders",9,"Anthony",0.91,"male","most undefined","morphological","most undefined","positive","successful","person","successful",0,3,"unsuccessful"
5,10855,"four_sliders",9,"Lee",0.25,"male","most undefined","morphological","most undefined","antonym","unsuccessful","person","successful",0,4,"unsuccessful"
5,8384,"four_sliders",10,"Mia",0.68,"female","most undefined","morphological","most undefined","positive","polite","person","polite",0,1,"impolite"
5,8384,"four_sliders",10,"Tom",0.27,"male","most undefined","morphological","most undefined","antonym","impolite","person","polite",0,2,"impolite"
5,8384,"four_sliders",10,"Kim",0.31,"female","most undefined","morphological","most undefined","neg_positive","not polite","person","polite",0,3,"impolite"
5,8384,"four_sliders",10,"Andrew",0.63,"male","most undefined","morphological","most undefined","neg_antonym","not impolite","person","polite",0,4,"impolite"
6,20010,"four_sliders",1,"Tom",0.28,"male","most undefined","morphological","most undefined","neg_positive","not polite","person","polite",0,1,"impolite"
6,20010,"four_sliders",1,"Monica",0.37,"female","most undefined","morphological","most undefined","antonym","impolite","person","polite",0,2,"impolite"
6,20010,"four_sliders",1,"Melinda",0.84,"female","most undefined","morphological","most undefined","positive","polite","person","polite",0,3,"impolite"
6,20010,"four_sliders",1,"Daniel",0.48,"male","most undefined","morphological","most undefined","neg_antonym","not impolite","person","polite",0,4,"impolite"
6,16255,"four_sliders",2,"Mia",0.57,"female","most undefined","morphological","most undefined","neg_antonym","not uninteresting","person","interesting",0,1,"uninteresting"
6,16255,"four_sliders",2,"Sophia",0.09,"female","most undefined","morphological","most undefined","antonym","uninteresting","person","interesting",0,2,"uninteresting"
6,16255,"four_sliders",2,"Lee",0.71,"male","most undefined","morphological","most undefined","positive","interesting","person","interesting",0,3,"uninteresting"
6,16255,"four_sliders",2,"Charles",0.27,"male","most undefined","morphological","most undefined","neg_positive","not interesting","person","interesting",0,4,"uninteresting"
6,15698,"four_sliders",3,"Samuel",0.61,"male","most undefined","morphological","most undefined","neg_antonym","not uneducated","person","educated",0,1,"uneducated"
6,15698,"four_sliders",3,"Lucas",0.81,"male","most undefined","morphological","most undefined","positive","educated","person","educated",0,2,"uneducated"
6,15698,"four_sliders",3,"John",0.38,"male","most undefined","morphological","most undefined","neg_positive","not educated","person","educated",0,3,"uneducated"
6,15698,"four_sliders",3,"Stephen",0.2,"male","most undefined","morphological","most undefined","antonym","uneducated","person","educated",0,4,"uneducated"
6,12881,"four_sliders",4,"Anthony",0.26,"male","most undefined","morphological","most undefined","neg_positive","not successful","person","successful",0,1,"unsuccessful"
6,12881,"four_sliders",4,"Andrew",0.75,"male","most undefined","morphological","most undefined","positive","successful","person","successful",0,2,"unsuccessful"
6,12881,"four_sliders",4,"Cameron",0.15,"male","most undefined","morphological","most undefined","antonym","unsuccessful","person","successful",0,3,"unsuccessful"
6,12881,"four_sliders",4,"Veronica",0.66,"female","most undefined","morphological","most undefined","neg_antonym","not unsuccessful","person","successful",0,4,"unsuccessful"
6,11799,"four_sliders",5,"Kathleen",0.19,"female","most undefined","morphological","most undefined","neg_positive","not honest","person","honest",0,1,"dishonest"
6,11799,"four_sliders",5,"Maya",0.58,"female","most undefined","morphological","most undefined","neg_antonym","not dishonest","person","honest",0,2,"dishonest"
6,11799,"four_sliders",5,"Alexander",0.79,"male","most undefined","morphological","most undefined","positive","honest","person","honest",0,3,"dishonest"
6,11799,"four_sliders",5,"Julia",0.09,"female","most undefined","morphological","most undefined","antonym","dishonest","person","honest",0,4,"dishonest"
6,8479,"four_sliders",6,"Jennifer",0.79,"female","most undefined","morphological","most undefined","positive","friendly","person","friendly",0,1,"unfriendly"
6,8479,"four_sliders",6,"Laura",0.13,"female","most undefined","morphological","most undefined","neg_positive","not friendly","person","friendly",0,2,"unfriendly"
6,8479,"four_sliders",6,"Jeremy",0.14,"male","most undefined","morphological","most undefined","antonym","unfriendly","person","friendly",0,3,"unfriendly"
6,8479,"four_sliders",6,"Alison",0.76,"female","most undefined","morphological","most undefined","neg_antonym","not unfriendly","person","friendly",0,4,"unfriendly"
6,21950,"four_sliders",7,"Alicia",0.19,"female","most undefined","morphological","most undefined","antonym","unintelligent","person","intelligent",0,1,"unintelligent"
6,21950,"four_sliders",7,"Dylan",0.77,"male","most undefined","morphological","most undefined","neg_antonym","not unintelligent","person","intelligent",0,2,"unintelligent"
6,21950,"four_sliders",7,"Sasha",0.83,"female","most undefined","morphological","most undefined","positive","intelligent","person","intelligent",0,3,"unintelligent"
6,21950,"four_sliders",7,"Michael",0.26,"male","most undefined","morphological","most undefined","neg_positive","not intelligent","person","intelligent",0,4,"unintelligent"
6,10894,"four_sliders",8,"William",0.26,"male","most undefined","morphological","most undefined","antonym","unhappy","person","happy",0,1,"unhappy"
6,10894,"four_sliders",8,"Angela",0.27,"female","most undefined","morphological","most undefined","neg_positive","not happy","person","happy",0,2,"unhappy"
6,10894,"four_sliders",8,"Gabriel",0.8,"male","most undefined","morphological","most undefined","positive","happy","person","happy",0,3,"unhappy"
6,10894,"four_sliders",8,"Stephanie",0.77,"female","most undefined","morphological","most undefined","neg_antonym","not unhappy","person","happy",0,4,"unhappy"
6,52013,"four_sliders",9,"Michelle",0.15,"female","most undefined","morphological","most undefined","antonym","unattractive","person","attractive",0,1,"unattractive"
6,52013,"four_sliders",9,"Kim",0.24,"female","most undefined","morphological","most undefined","neg_positive","not attractive","person","attractive",0,2,"unattractive"
6,52013,"four_sliders",9,"Eric",0.76,"male","most undefined","morphological","most undefined","positive","attractive","person","attractive",0,3,"unattractive"
6,52013,"four_sliders",9,"Claire",0.71,"female","most undefined","morphological","most undefined","neg_antonym","not unattractive","person","attractive",0,4,"unattractive"
6,12634,"four_sliders",10,"David",0.65,"male","most undefined","morphological","most undefined","neg_antonym","not immature","person","mature",0,1,"immature"
6,12634,"four_sliders",10,"Emma",0.09,"female","most undefined","morphological","most undefined","neg_positive","not mature","person","mature",0,2,"immature"
6,12634,"four_sliders",10,"Diana",0.83,"female","most undefined","morphological","most undefined","positive","mature","person","mature",0,3,"immature"
6,12634,"four_sliders",10,"Greg",0.05,"male","most undefined","morphological","most undefined","antonym","immature","person","mature",0,4,"immature"
7,35425,"four_sliders",1,"Sophia",0.99,"female","most undefined","morphological","most undefined","positive","mature","person","mature",0,1,"immature"
7,35425,"four_sliders",1,"Michelle",0,"female","most undefined","morphological","most undefined","antonym","immature","person","mature",0,2,"immature"
7,35425,"four_sliders",1,"Jeremy",0.48,"male","most undefined","morphological","most undefined","neg_positive","not mature","person","mature",0,3,"immature"
7,35425,"four_sliders",1,"Tom",0.81,"male","most undefined","morphological","most undefined","neg_antonym","not immature","person","mature",0,4,"immature"
7,32882,"four_sliders",2,"Mia",0.49,"female","most undefined","morphological","most undefined","neg_antonym","not uneducated","person","educated",0,1,"uneducated"
7,32882,"four_sliders",2,"Claire",0.99,"female","most undefined","morphological","most undefined","positive","educated","person","educated",0,2,"uneducated"
7,32882,"four_sliders",2,"William",0.29,"male","most undefined","morphological","most undefined","neg_positive","not educated","person","educated",0,3,"uneducated"
7,32882,"four_sliders",2,"Veronica",0.01,"female","most undefined","morphological","most undefined","antonym","uneducated","person","educated",0,4,"uneducated"
7,17759,"four_sliders",3,"Dylan",0.48,"male","most undefined","morphological","most undefined","neg_positive","not attractive","person","attractive",0,1,"unattractive"
7,17759,"four_sliders",3,"Laura",0.98,"female","most undefined","morphological","most undefined","positive","attractive","person","attractive",0,2,"unattractive"
7,17759,"four_sliders",3,"Stephen",0.01,"male","most undefined","morphological","most undefined","antonym","unattractive","person","attractive",0,3,"unattractive"
7,17759,"four_sliders",3,"Greg",0.69,"male","most undefined","morphological","most undefined","neg_antonym","not unattractive","person","attractive",0,4,"unattractive"
7,15367,"four_sliders",4,"Lee",1,"male","most undefined","morphological","most undefined","positive","intelligent","person","intelligent",0,1,"unintelligent"
7,15367,"four_sliders",4,"Charles",0.39,"male","most undefined","morphological","most undefined","neg_positive","not intelligent","person","intelligent",0,2,"unintelligent"
7,15367,"four_sliders",4,"Michael",0.01,"male","most undefined","morphological","most undefined","antonym","unintelligent","person","intelligent",0,3,"unintelligent"
7,15367,"four_sliders",4,"Alicia",0.61,"female","most undefined","morphological","most undefined","neg_antonym","not unintelligent","person","intelligent",0,4,"unintelligent"
7,12341,"four_sliders",5,"Stephanie",0.47,"female","most undefined","morphological","most undefined","neg_positive","not honest","person","honest",0,1,"dishonest"
7,12341,"four_sliders",5,"Angela",0.03,"female","most undefined","morphological","most undefined","antonym","dishonest","person","honest",0,2,"dishonest"
7,12341,"four_sliders",5,"Kim",0.99,"female","most undefined","morphological","most undefined","positive","honest","person","honest",0,3,"dishonest"
7,12341,"four_sliders",5,"Alexander",0.47,"male","most undefined","morphological","most undefined","neg_antonym","not dishonest","person","honest",0,4,"dishonest"
7,10928,"four_sliders",6,"Jennifer",0.48,"female","most undefined","morphological","most undefined","neg_antonym","not impolite","person","polite",0,1,"impolite"
7,10928,"four_sliders",6,"Emma",0.97,"female","most undefined","morphological","most undefined","positive","polite","person","polite",0,2,"impolite"
7,10928,"four_sliders",6,"Monica",0,"female","most undefined","morphological","most undefined","antonym","impolite","person","polite",0,3,"impolite"
7,10928,"four_sliders",6,"Andrew",0.46,"male","most undefined","morphological","most undefined","neg_positive","not polite","person","polite",0,4,"impolite"
7,15069,"four_sliders",7,"Maya",0.99,"female","most undefined","morphological","most undefined","positive","friendly","person","friendly",0,1,"unfriendly"
7,15069,"four_sliders",7,"Sasha",0.48,"female","most undefined","morphological","most undefined","neg_antonym","not unfriendly","person","friendly",0,2,"unfriendly"
7,15069,"four_sliders",7,"Diana",0.01,"female","most undefined","morphological","most undefined","antonym","unfriendly","person","friendly",0,3,"unfriendly"
7,15069,"four_sliders",7,"David",0.26,"male","most undefined","morphological","most undefined","neg_positive","not friendly","person","friendly",0,4,"unfriendly"
7,11364,"four_sliders",8,"Julia",0.3,"female","most undefined","morphological","most undefined","neg_positive","not successful","person","successful",0,1,"unsuccessful"
7,11364,"four_sliders",8,"Melinda",0.48,"female","most undefined","morphological","most undefined","neg_antonym","not unsuccessful","person","successful",0,2,"unsuccessful"
7,11364,"four_sliders",8,"Samuel",0.01,"male","most undefined","morphological","most undefined","antonym","unsuccessful","person","successful",0,3,"unsuccessful"
7,11364,"four_sliders",8,"Kathleen",0.97,"female","most undefined","morphological","most undefined","positive","successful","person","successful",0,4,"unsuccessful"
7,10438,"four_sliders",9,"Anthony",0.02,"male","most undefined","morphological","most undefined","antonym","unhappy","person","happy",0,1,"unhappy"
7,10438,"four_sliders",9,"Gabriel",0.97,"male","most undefined","morphological","most undefined","positive","happy","person","happy",0,2,"unhappy"
7,10438,"four_sliders",9,"John",0.53,"male","most undefined","morphological","most undefined","neg_antonym","not unhappy","person","happy",0,3,"unhappy"
7,10438,"four_sliders",9,"Daniel",0.25,"male","most undefined","morphological","most undefined","neg_positive","not happy","person","happy",0,4,"unhappy"
7,9790,"four_sliders",10,"Lucas",0.5,"male","most undefined","morphological","most undefined","neg_antonym","not uninteresting","person","interesting",0,1,"uninteresting"
7,9790,"four_sliders",10,"Cameron",0.99,"male","most undefined","morphological","most undefined","positive","interesting","person","interesting",0,2,"uninteresting"
7,9790,"four_sliders",10,"Eric",0.01,"male","most undefined","morphological","most undefined","antonym","uninteresting","person","interesting",0,3,"uninteresting"
7,9790,"four_sliders",10,"Alison",0.3,"female","most undefined","morphological","most undefined","neg_positive","not interesting","person","interesting",0,4,"uninteresting"
8,8856,"four_sliders",1,"Laura",0.54,"female","most successful","morphological","most unsuccessful","positive","successful","person","successful",0,1,"unsuccessful"
8,8856,"four_sliders",1,"Andrew",0.53,"male","most successful","morphological","most unsuccessful","neg_positive","not successful","person","successful",0,2,"unsuccessful"
8,8856,"four_sliders",1,"Diana",0.51,"female","most successful","morphological","most unsuccessful","antonym","unsuccessful","person","successful",0,3,"unsuccessful"
8,8856,"four_sliders",1,"Alexander",0.5,"male","most successful","morphological","most unsuccessful","neg_antonym","not unsuccessful","person","successful",0,4,"unsuccessful"
8,6716,"four_sliders",2,"Jennifer",0.47,"female","most hard-working","lexical","most lazy","neg_positive","not hard-working","person","hard-working",0,1,"lazy"
8,6716,"four_sliders",2,"Lucas",0.48,"male","most hard-working","lexical","most lazy","neg_antonym","not lazy","person","hard-working",0,2,"lazy"
8,6716,"four_sliders",2,"Sophia",0.46,"female","most hard-working","lexical","most lazy","antonym","lazy","person","hard-working",0,3,"lazy"
8,6716,"four_sliders",2,"Julia",0.45,"female","most hard-working","lexical","most lazy","positive","hard-working","person","hard-working",0,4,"lazy"
8,7064,"four_sliders",3,"Maya",0.04,"female","happiest","morphological","unhappiest","antonym","unhappy","person","happy",1,1,"unhappy"
8,7064,"four_sliders",3,"Charles",0.04,"male","happiest","morphological","unhappiest","neg_antonym","not unhappy","person","happy",1,2,"unhappy"
8,7064,"four_sliders",3,"Veronica",0.96,"female","happiest","morphological","unhappiest","positive","happy","person","happy",1,3,"unhappy"
8,7064,"four_sliders",3,"Alicia",0.04,"female","happiest","morphological","unhappiest","neg_positive","not happy","person","happy",1,4,"unhappy"
8,7121,"four_sliders",4,"Gabriel",0.03,"male","most mature","morphological","most immature","neg_positive","not mature","person","mature",0,1,"immature"
8,7121,"four_sliders",4,"Kim",0.03,"female","most mature","morphological","most immature","neg_antonym","not immature","person","mature",0,2,"immature"
8,7121,"four_sliders",4,"Alison",0.94,"female","most mature","morphological","most immature","positive","mature","person","mature",0,3,"immature"
8,7121,"four_sliders",4,"Kathleen",0.05,"female","most mature","morphological","most immature","antonym","immature","person","mature",0,4,"immature"
8,8337,"four_sliders",5,"Mia",0.94,"female","most loud","lexical","most quiet","positive","loud","person","loud",0,1,"quiet"
8,8337,"four_sliders",5,"Anthony",0.03,"male","most loud","lexical","most quiet","antonym","quiet","person","loud",0,2,"quiet"
8,8337,"four_sliders",5,"Jeremy",0.04,"male","most loud","lexical","most quiet","neg_positive","not loud","person","loud",0,3,"quiet"
8,8337,"four_sliders",5,"Samuel",0.95,"male","most loud","lexical","most quiet","neg_antonym","not quiet","person","loud",0,4,"quiet"
8,8079,"four_sliders",6,"Melinda",0.97,"female","richest","lexical","poorest","neg_positive","not rich","person","rich",1,1,"poor"
8,8079,"four_sliders",6,"Greg",0.03,"male","richest","lexical","poorest","antonym","poor","person","rich",1,2,"poor"
8,8079,"four_sliders",6,"Monica",0.99,"female","richest","lexical","poorest","positive","rich","person","rich",1,3,"poor"
8,8079,"four_sliders",6,"Stephen",0.95,"male","richest","lexical","poorest","neg_antonym","not poor","person","rich",1,4,"poor"
8,7709,"four_sliders",7,"Lee",0.04,"male","most beautiful","lexical","most ugly","antonym","ugly","person","beautiful",0,1,"ugly"
8,7709,"four_sliders",7,"Daniel",0.05,"male","most beautiful","lexical","most ugly","neg_positive","not beautiful","person","beautiful",0,2,"ugly"
8,7709,"four_sliders",7,"David",0.97,"male","most beautiful","lexical","most ugly","positive","beautiful","person","beautiful",0,3,"ugly"
8,7709,"four_sliders",7,"Stephanie",0.95,"female","most beautiful","lexical","most ugly","neg_antonym","not ugly","person","beautiful",0,4,"ugly"
8,8489,"four_sliders",8,"Angela",0.98,"female","strongest","lexical","weakest","positive","strong","person","strong",1,1,"weak"
8,8489,"four_sliders",8,"Sasha",0.04,"female","strongest","lexical","weakest","neg_positive","not strong","person","strong",1,2,"weak"
8,8489,"four_sliders",8,"Tom",0.44,"male","strongest","lexical","weakest","neg_antonym","not weak","person","strong",1,3,"weak"
8,8489,"four_sliders",8,"John",0.12,"male","strongest","lexical","weakest","antonym","weak","person","strong",1,4,"weak"
8,7430,"four_sliders",9,"Dylan",0.04,"male","most honest","morphological","most dishonest","antonym","dishonest","person","honest",0,1,"dishonest"
8,7430,"four_sliders",9,"Michelle",0.04,"female","most honest","morphological","most dishonest","neg_positive","not honest","person","honest",0,2,"dishonest"
8,7430,"four_sliders",9,"Eric",0.96,"male","most honest","morphological","most dishonest","positive","honest","person","honest",0,3,"dishonest"
8,7430,"four_sliders",9,"Michael",0.58,"male","most honest","morphological","most dishonest","neg_antonym","not dishonest","person","honest",0,4,"dishonest"
8,6487,"four_sliders",10,"Claire",0.94,"female","most attractive","morphological","most unattractive","positive","attractive","person","attractive",0,1,"unattractive"
8,6487,"four_sliders",10,"Emma",0.07,"female","most attractive","morphological","most unattractive","neg_antonym","not unattractive","person","attractive",0,2,"unattractive"
8,6487,"four_sliders",10,"William",0.53,"male","most attractive","morphological","most unattractive","antonym","unattractive","person","attractive",0,3,"unattractive"
8,6487,"four_sliders",10,"Cameron",0.4,"male","most attractive","morphological","most unattractive","neg_positive","not attractive","person","attractive",0,4,"unattractive"
9,14040,"four_sliders",1,"Monica",0.17,"female","most undefined","morphological","most undefined","neg_positive","not intelligent","person","intelligent",0,1,"unintelligent"
9,14040,"four_sliders",1,"Greg",0.75,"male","most undefined","morphological","most undefined","positive","intelligent","person","intelligent",0,2,"unintelligent"
9,14040,"four_sliders",1,"William",0.1,"male","most undefined","morphological","most undefined","neg_antonym","not unintelligent","person","intelligent",0,3,"unintelligent"
9,14040,"four_sliders",1,"Jennifer",0.29,"female","most undefined","morphological","most undefined","antonym","unintelligent","person","intelligent",0,4,"unintelligent"
9,11721,"four_sliders",2,"Charles",0.81,"male","most undefined","morphological","most undefined","positive","polite","person","polite",0,1,"impolite"
9,11721,"four_sliders",2,"Stephanie",0.17,"female","most undefined","morphological","most undefined","antonym","impolite","person","polite",0,2,"impolite"
9,11721,"four_sliders",2,"Eric",0.67,"male","most undefined","morphological","most undefined","neg_antonym","not impolite","person","polite",0,3,"impolite"
9,11721,"four_sliders",2,"Laura",0.11,"female","most undefined","morphological","most undefined","neg_positive","not polite","person","polite",0,4,"impolite"
9,9456,"four_sliders",3,"Dylan",0.83,"male","most undefined","morphological","most undefined","neg_antonym","not unattractive","person","attractive",0,1,"unattractive"
9,9456,"four_sliders",3,"Alison",0.06,"female","most undefined","morphological","most undefined","antonym","unattractive","person","attractive",0,2,"unattractive"
9,9456,"four_sliders",3,"Melinda",0.07,"female","most undefined","morphological","most undefined","neg_positive","not attractive","person","attractive",0,3,"unattractive"
9,9456,"four_sliders",3,"Diana",0.94,"female","most undefined","morphological","most undefined","positive","attractive","person","attractive",0,4,"unattractive"
9,6687,"four_sliders",4,"Alicia",0.79,"female","most undefined","morphological","most undefined","positive","successful","person","successful",0,1,"unsuccessful"
9,6687,"four_sliders",4,"Lucas",0.14,"male","most undefined","morphological","most undefined","neg_positive","not successful","person","successful",0,2,"unsuccessful"
9,6687,"four_sliders",4,"Veronica",0.07,"female","most undefined","morphological","most undefined","antonym","unsuccessful","person","successful",0,3,"unsuccessful"
9,6687,"four_sliders",4,"Lee",0.78,"male","most undefined","morphological","most undefined","neg_antonym","not unsuccessful","person","successful",0,4,"unsuccessful"
9,5790,"four_sliders",5,"Anthony",0.73,"male","most undefined","morphological","most undefined","positive","mature","person","mature",0,1,"immature"
9,5790,"four_sliders",5,"Sasha",0.86,"female","most undefined","morphological","most undefined","neg_antonym","not immature","person","mature",0,2,"immature"
9,5790,"four_sliders",5,"Emma",0.15,"female","most undefined","morphological","most undefined","antonym","immature","person","mature",0,3,"immature"
9,5790,"four_sliders",5,"Daniel",0.06,"male","most undefined","morphological","most undefined","neg_positive","not mature","person","mature",0,4,"immature"
9,6170,"four_sliders",6,"Michael",0.93,"male","most undefined","morphological","most undefined","positive","honest","person","honest",0,1,"dishonest"
9,6170,"four_sliders",6,"Claire",0.22,"female","most undefined","morphological","most undefined","antonym","dishonest","person","honest",0,2,"dishonest"
9,6170,"four_sliders",6,"Andrew",0.76,"male","most undefined","morphological","most undefined","neg_antonym","not dishonest","person","honest",0,3,"dishonest"
9,6170,"four_sliders",6,"Angela",0.12,"female","most undefined","morphological","most undefined","neg_positive","not honest","person","honest",0,4,"dishonest"
9,7678,"four_sliders",7,"Michelle",0.8,"female","most undefined","morphological","most undefined","neg_antonym","not uninteresting","person","interesting",0,1,"uninteresting"
9,7678,"four_sliders",7,"Cameron",0.2,"male","most undefined","morphological","most undefined","neg_positive","not interesting","person","interesting",0,2,"uninteresting"
9,7678,"four_sliders",7,"Sophia",0.88,"female","most undefined","morphological","most undefined","positive","interesting","person","interesting",0,3,"uninteresting"
9,7678,"four_sliders",7,"Samuel",0.12,"male","most undefined","morphological","most undefined","antonym","uninteresting","person","interesting",0,4,"uninteresting"
9,11780,"four_sliders",8,"Jeremy",0.17,"male","most undefined","morphological","most undefined","neg_positive","not friendly","person","friendly",0,1,"unfriendly"
9,11780,"four_sliders",8,"Julia",0.82,"female","most undefined","morphological","most undefined","neg_antonym","not unfriendly","person","friendly",0,2,"unfriendly"
9,11780,"four_sliders",8,"Tom",0.89,"male","most undefined","morphological","most undefined","positive","friendly","person","friendly",0,3,"unfriendly"
9,11780,"four_sliders",8,"Mia",0.12,"female","most undefined","morphological","most undefined","antonym","unfriendly","person","friendly",0,4,"unfriendly"
9,5540,"four_sliders",9,"Alexander",0.22,"male","most undefined","morphological","most undefined","neg_positive","not educated","person","educated",0,1,"uneducated"
9,5540,"four_sliders",9,"Kim",0.75,"female","most undefined","morphological","most undefined","neg_antonym","not uneducated","person","educated",0,2,"uneducated"
9,5540,"four_sliders",9,"John",0.8,"male","most undefined","morphological","most undefined","positive","educated","person","educated",0,3,"uneducated"
9,5540,"four_sliders",9,"Kathleen",0.13,"female","most undefined","morphological","most undefined","antonym","uneducated","person","educated",0,4,"uneducated"
9,4498,"four_sliders",10,"Maya",0.83,"female","most undefined","morphological","most undefined","positive","happy","person","happy",0,1,"unhappy"
9,4498,"four_sliders",10,"Gabriel",0.76,"male","most undefined","morphological","most undefined","neg_antonym","not unhappy","person","happy",0,2,"unhappy"
9,4498,"four_sliders",10,"David",0.21,"male","most undefined","morphological","most undefined","neg_positive","not happy","person","happy",0,3,"unhappy"
9,4498,"four_sliders",10,"Stephen",0.1,"male","most undefined","morphological","most undefined","antonym","unhappy","person","happy",0,4,"unhappy"
10,19302,"four_sliders",1,"Stephen",0.05,"male","most undefined","morphological","most undefined","antonym","unfriendly","person","friendly",0,1,"unfriendly"
10,19302,"four_sliders",1,"Samuel",0.76,"male","most undefined","morphological","most undefined","positive","friendly","person","friendly",0,2,"unfriendly"
10,19302,"four_sliders",1,"Alicia",0.87,"female","most undefined","morphological","most undefined","neg_antonym","not unfriendly","person","friendly",0,3,"unfriendly"
10,19302,"four_sliders",1,"John",0.05,"male","most undefined","morphological","most undefined","neg_positive","not friendly","person","friendly",0,4,"unfriendly"
10,11257,"four_sliders",2,"Maya",0.09,"female","most undefined","morphological","most undefined","antonym","unattractive","person","attractive",0,1,"unattractive"
10,11257,"four_sliders",2,"Dylan",0.86,"male","most undefined","morphological","most undefined","neg_antonym","not unattractive","person","attractive",0,2,"unattractive"
10,11257,"four_sliders",2,"Andrew",0.03,"male","most undefined","morphological","most undefined","neg_positive","not attractive","person","attractive",0,3,"unattractive"
10,11257,"four_sliders",2,"Sophia",0.85,"female","most undefined","morphological","most undefined","positive","attractive","person","attractive",0,4,"unattractive"
10,8762,"four_sliders",3,"Kim",0.89,"female","most undefined","morphological","most undefined","neg_antonym","not dishonest","person","honest",0,1,"dishonest"
10,8762,"four_sliders",3,"Mia",0.06,"female","most undefined","morphological","most undefined","neg_positive","not honest","person","honest",0,2,"dishonest"
10,8762,"four_sliders",3,"Jennifer",0.89,"female","most undefined","morphological","most undefined","positive","honest","person","honest",0,3,"dishonest"
10,8762,"four_sliders",3,"Gabriel",0.01,"male","most undefined","morphological","most undefined","antonym","dishonest","person","honest",0,4,"dishonest"
10,9887,"four_sliders",4,"Alison",0.05,"female","most undefined","morphological","most undefined","neg_positive","not interesting","person","interesting",0,1,"uninteresting"
10,9887,"four_sliders",4,"Alexander",0.07,"male","most undefined","morphological","most undefined","antonym","uninteresting","person","interesting",0,2,"uninteresting"
10,9887,"four_sliders",4,"Lee",0.93,"male","most undefined","morphological","most undefined","positive","interesting","person","interesting",0,3,"uninteresting"
10,9887,"four_sliders",4,"Veronica",0.92,"female","most undefined","morphological","most undefined","neg_antonym","not uninteresting","person","interesting",0,4,"uninteresting"
10,7028,"four_sliders",5,"Julia",0.92,"female","most undefined","morphological","most undefined","neg_antonym","not immature","person","mature",0,1,"immature"
10,7028,"four_sliders",5,"Eric",0.91,"male","most undefined","morphological","most undefined","positive","mature","person","mature",0,2,"immature"
10,7028,"four_sliders",5,"Claire",0.04,"female","most undefined","morphological","most undefined","antonym","immature","person","mature",0,3,"immature"
10,7028,"four_sliders",5,"Michelle",0.02,"female","most undefined","morphological","most undefined","neg_positive","not mature","person","mature",0,4,"immature"
10,5426,"four_sliders",6,"Emma",0.09,"female","most undefined","morphological","most undefined","antonym","unhappy","person","happy",0,1,"unhappy"
10,5426,"four_sliders",6,"William",0.08,"male","most undefined","morphological","most undefined","neg_positive","not happy","person","happy",0,2,"unhappy"
10,5426,"four_sliders",6,"Sasha",0.94,"female","most undefined","morphological","most undefined","neg_antonym","not unhappy","person","happy",0,3,"unhappy"
10,5426,"four_sliders",6,"Kathleen",0.94,"female","most undefined","morphological","most undefined","positive","happy","person","happy",0,4,"unhappy"
10,5146,"four_sliders",7,"Greg",0.02,"male","most undefined","morphological","most undefined","antonym","unintelligent","person","intelligent",0,1,"unintelligent"
10,5146,"four_sliders",7,"Diana",0.05,"female","most undefined","morphological","most undefined","neg_positive","not intelligent","person","intelligent",0,2,"unintelligent"
10,5146,"four_sliders",7,"Daniel",0.92,"male","most undefined","morphological","most undefined","neg_antonym","not unintelligent","person","intelligent",0,3,"unintelligent"
10,5146,"four_sliders",7,"Angela",0.92,"female","most undefined","morphological","most undefined","positive","intelligent","person","intelligent",0,4,"unintelligent"
10,6190,"four_sliders",8,"Charles",0.06,"male","most undefined","morphological","most undefined","neg_positive","not polite","person","polite",0,1,"impolite"
10,6190,"four_sliders",8,"Stephanie",0.05,"female","most undefined","morphological","most undefined","antonym","impolite","person","polite",0,2,"impolite"
10,6190,"four_sliders",8,"Tom",0.9,"male","most undefined","morphological","most undefined","neg_antonym","not impolite","person","polite",0,3,"impolite"
10,6190,"four_sliders",8,"Melinda",0.9,"female","most undefined","morphological","most undefined","positive","polite","person","polite",0,4,"impolite"
10,6392,"four_sliders",9,"Cameron",0.96,"male","most undefined","morphological","most undefined","positive","successful","person","successful",0,1,"unsuccessful"
10,6392,"four_sliders",9,"David",0.95,"male","most undefined","morphological","most undefined","neg_antonym","not unsuccessful","person","successful",0,2,"unsuccessful"
10,6392,"four_sliders",9,"Michael",0.06,"male","most undefined","morphological","most undefined","neg_positive","not successful","person","successful",0,3,"unsuccessful"
10,6392,"four_sliders",9,"Monica",0.06,"female","most undefined","morphological","most undefined","antonym","unsuccessful","person","successful",0,4,"unsuccessful"
10,8494,"four_sliders",10,"Jeremy",0.92,"male","most undefined","morphological","most undefined","neg_antonym","not uneducated","person","educated",0,1,"uneducated"
10,8494,"four_sliders",10,"Lucas",0.04,"male","most undefined","morphological","most undefined","neg_positive","not educated","person","educated",0,2,"uneducated"
10,8494,"four_sliders",10,"Laura",0.06,"female","most undefined","morphological","most undefined","antonym","uneducated","person","educated",0,3,"uneducated"
10,8494,"four_sliders",10,"Anthony",0.94,"male","most undefined","morphological","most undefined","positive","educated","person","educated",0,4,"uneducated"
11,13797,"four_sliders",1,"Monica",0.84,"female","most undefined","morphological","most undefined","antonym","unattractive","person","attractive",0,1,"unattractive"
11,13797,"four_sliders",1,"Sophia",0.12,"female","most undefined","morphological","most undefined","neg_positive","not attractive","person","attractive",0,2,"unattractive"
11,13797,"four_sliders",1,"Jeremy",0.59,"male","most undefined","morphological","most undefined","positive","attractive","person","attractive",0,3,"unattractive"
11,13797,"four_sliders",1,"Sasha",0.33,"female","most undefined","morphological","most undefined","neg_antonym","not unattractive","person","attractive",0,4,"unattractive"
11,8981,"four_sliders",2,"Diana",0.24,"female","most undefined","morphological","most undefined","neg_positive","not happy","person","happy",0,1,"unhappy"
11,8981,"four_sliders",2,"Greg",0.75,"male","most undefined","morphological","most undefined","positive","happy","person","happy",0,2,"unhappy"
11,8981,"four_sliders",2,"Michelle",0.44,"female","most undefined","morphological","most undefined","neg_antonym","not unhappy","person","happy",0,3,"unhappy"
11,8981,"four_sliders",2,"Alison",0.69,"female","most undefined","morphological","most undefined","antonym","unhappy","person","happy",0,4,"unhappy"
11,9127,"four_sliders",3,"Kathleen",0.76,"female","most undefined","morphological","most undefined","antonym","impolite","person","polite",0,1,"impolite"
11,9127,"four_sliders",3,"Lucas",0.35,"male","most undefined","morphological","most undefined","neg_positive","not polite","person","polite",0,2,"impolite"
11,9127,"four_sliders",3,"Dylan",0.22,"male","most undefined","morphological","most undefined","neg_antonym","not impolite","person","polite",0,3,"impolite"
11,9127,"four_sliders",3,"Angela",0.82,"female","most undefined","morphological","most undefined","positive","polite","person","polite",0,4,"impolite"
11,7199,"four_sliders",4,"Jennifer",0.18,"female","most undefined","morphological","most undefined","neg_positive","not mature","person","mature",0,1,"immature"
11,7199,"four_sliders",4,"Claire",0.56,"female","most undefined","morphological","most undefined","antonym","immature","person","mature",0,2,"immature"
11,7199,"four_sliders",4,"Eric",0.71,"male","most undefined","morphological","most undefined","positive","mature","person","mature",0,3,"immature"
11,7199,"four_sliders",4,"Julia",0.28,"female","most undefined","morphological","most undefined","neg_antonym","not immature","person","mature",0,4,"immature"
11,25966,"four_sliders",5,"Andrew",0.16,"male","most undefined","morphological","most undefined","neg_antonym","not uninteresting","person","interesting",0,1,"uninteresting"
11,25966,"four_sliders",5,"Charles",0.64,"male","most undefined","morphological","most undefined","antonym","uninteresting","person","interesting",0,2,"uninteresting"
11,25966,"four_sliders",5,"Veronica",0.09,"female","most undefined","morphological","most undefined","neg_positive","not interesting","person","interesting",0,3,"uninteresting"
11,25966,"four_sliders",5,"Alicia",0.53,"female","most undefined","morphological","most undefined","positive","interesting","person","interesting",0,4,"uninteresting"
11,9158,"four_sliders",6,"Stephanie",0.66,"female","most undefined","morphological","most undefined","positive","educated","person","educated",0,1,"uneducated"
11,9158,"four_sliders",6,"Laura",0.14,"female","most undefined","morphological","most undefined","neg_positive","not educated","person","educated",0,2,"uneducated"
11,9158,"four_sliders",6,"Stephen",0.78,"male","most undefined","morphological","most undefined","antonym","uneducated","person","educated",0,3,"uneducated"
11,9158,"four_sliders",6,"Mia",0.23,"female","most undefined","morphological","most undefined","neg_antonym","not uneducated","person","educated",0,4,"uneducated"
11,8819,"four_sliders",7,"Michael",0.81,"male","most undefined","morphological","most undefined","positive","honest","person","honest",0,1,"dishonest"
11,8819,"four_sliders",7,"Kim",0.11,"female","most undefined","morphological","most undefined","neg_antonym","not dishonest","person","honest",0,2,"dishonest"
11,8819,"four_sliders",7,"Cameron",0.57,"male","most undefined","morphological","most undefined","antonym","dishonest","person","honest",0,3,"dishonest"
11,8819,"four_sliders",7,"Daniel",0.26,"male","most undefined","morphological","most undefined","neg_positive","not honest","person","honest",0,4,"dishonest"
11,8527,"four_sliders",8,"Alexander",0.26,"male","most undefined","morphological","most undefined","antonym","unfriendly","person","friendly",0,1,"unfriendly"
11,8527,"four_sliders",8,"John",0.81,"male","most undefined","morphological","most undefined","positive","friendly","person","friendly",0,2,"unfriendly"
11,8527,"four_sliders",8,"Gabriel",0.18,"male","most undefined","morphological","most undefined","neg_positive","not friendly","person","friendly",0,3,"unfriendly"
11,8527,"four_sliders",8,"Samuel",0.12,"male","most undefined","morphological","most undefined","neg_antonym","not unfriendly","person","friendly",0,4,"unfriendly"
11,10319,"four_sliders",9,"Melinda",0.15,"female","most undefined","morphological","most undefined","neg_antonym","not unsuccessful","person","successful",0,1,"unsuccessful"
11,10319,"four_sliders",9,"Lee",0.54,"male","most undefined","morphological","most undefined","antonym","unsuccessful","person","successful",0,2,"unsuccessful"
11,10319,"four_sliders",9,"David",0.83,"male","most undefined","morphological","most undefined","positive","successful","person","successful",0,3,"unsuccessful"
11,10319,"four_sliders",9,"Anthony",0.22,"male","most undefined","morphological","most undefined","neg_positive","not successful","person","successful",0,4,"unsuccessful"
11,8335,"four_sliders",10,"Maya",0.72,"female","most undefined","morphological","most undefined","positive","intelligent","person","intelligent",0,1,"unintelligent"
11,8335,"four_sliders",10,"Emma",0.15,"female","most undefined","morphological","most undefined","neg_antonym","not unintelligent","person","intelligent",0,2,"unintelligent"
11,8335,"four_sliders",10,"William",0.53,"male","most undefined","morphological","most undefined","antonym","unintelligent","person","intelligent",0,3,"unintelligent"
11,8335,"four_sliders",10,"Tom",0.09,"male","most undefined","morphological","most undefined","neg_positive","not intelligent","person","intelligent",0,4,"unintelligent"
12,24319,"four_sliders",1,"Michael",0.33,"male","most undefined","morphological","most undefined","neg_positive","not interesting","person","interesting",0,1,"uninteresting"
12,24319,"four_sliders",1,"Jeremy",0.6,"male","most undefined","morphological","most undefined","neg_antonym","not uninteresting","person","interesting",0,2,"uninteresting"
12,24319,"four_sliders",1,"Veronica",0.04,"female","most undefined","morphological","most undefined","antonym","uninteresting","person","interesting",0,3,"uninteresting"
12,24319,"four_sliders",1,"Maya",0.95,"female","most undefined","morphological","most undefined","positive","interesting","person","interesting",0,4,"uninteresting"
12,12146,"four_sliders",2,"Charles",0.85,"male","most undefined","morphological","most undefined","positive","friendly","person","friendly",0,1,"unfriendly"
12,12146,"four_sliders",2,"Alison",0.57,"female","most undefined","morphological","most undefined","neg_antonym","not unfriendly","person","friendly",0,2,"unfriendly"
12,12146,"four_sliders",2,"Angela",0.31,"female","most undefined","morphological","most undefined","neg_positive","not friendly","person","friendly",0,3,"unfriendly"
12,12146,"four_sliders",2,"Stephen",0.03,"male","most undefined","morphological","most undefined","antonym","unfriendly","person","friendly",0,4,"unfriendly"
12,12985,"four_sliders",3,"Lee",0.98,"male","most undefined","morphological","most undefined","positive","honest","person","honest",0,1,"dishonest"
12,12985,"four_sliders",3,"Samuel",0.01,"male","most undefined","morphological","most undefined","antonym","dishonest","person","honest",0,2,"dishonest"
12,12985,"four_sliders",3,"Lucas",0.26,"male","most undefined","morphological","most undefined","neg_positive","not honest","person","honest",0,3,"dishonest"
12,12985,"four_sliders",3,"Jennifer",0.57,"female","most undefined","morphological","most undefined","neg_antonym","not dishonest","person","honest",0,4,"dishonest"
12,21240,"four_sliders",4,"Julia",0.08,"female","most undefined","morphological","most undefined","antonym","uneducated","person","educated",0,1,"uneducated"
12,21240,"four_sliders",4,"Emma",0.85,"female","most undefined","morphological","most undefined","positive","educated","person","educated",0,2,"uneducated"
12,21240,"four_sliders",4,"Sasha",0.63,"female","most undefined","morphological","most undefined","neg_antonym","not uneducated","person","educated",0,3,"uneducated"
12,21240,"four_sliders",4,"Tom",0.28,"male","most undefined","morphological","most undefined","neg_positive","not educated","person","educated",0,4,"uneducated"
12,12155,"four_sliders",5,"David",0.88,"male","most undefined","morphological","most undefined","positive","mature","person","mature",0,1,"immature"
12,12155,"four_sliders",5,"Laura",0.25,"female","most undefined","morphological","most undefined","neg_positive","not mature","person","mature",0,2,"immature"
12,12155,"four_sliders",5,"John",0.05,"male","most undefined","morphological","most undefined","antonym","immature","person","mature",0,3,"immature"
12,12155,"four_sliders",5,"Cameron",0.59,"male","most undefined","morphological","most undefined","neg_antonym","not immature","person","mature",0,4,"immature"
12,13586,"four_sliders",6,"Michelle",0.81,"female","most undefined","morphological","most undefined","positive","intelligent","person","intelligent",0,1,"unintelligent"
12,13586,"four_sliders",6,"Eric",0.08,"male","most undefined","morphological","most undefined","antonym","unintelligent","person","intelligent",0,2,"unintelligent"
12,13586,"four_sliders",6,"Stephanie",0.42,"female","most undefined","morphological","most undefined","neg_positive","not intelligent","person","intelligent",0,3,"unintelligent"
12,13586,"four_sliders",6,"Claire",0.56,"female","most undefined","morphological","most undefined","neg_antonym","not unintelligent","person","intelligent",0,4,"unintelligent"
12,12522,"four_sliders",7,"Monica",0.24,"female","most undefined","morphological","most undefined","neg_positive","not happy","person","happy",0,1,"unhappy"
12,12522,"four_sliders",7,"Diana",0.95,"female","most undefined","morphological","most undefined","positive","happy","person","happy",0,2,"unhappy"
12,12522,"four_sliders",7,"Alexander",0.5,"male","most undefined","morphological","most undefined","neg_antonym","not unhappy","person","happy",0,3,"unhappy"
12,12522,"four_sliders",7,"Andrew",0.04,"male","most undefined","morphological","most undefined","antonym","unhappy","person","happy",0,4,"unhappy"
12,19089,"four_sliders",8,"Anthony",0.3,"male","most undefined","morphological","most undefined","neg_positive","not attractive","person","attractive",0,1,"unattractive"
12,19089,"four_sliders",8,"Alicia",0.83,"female","most undefined","morphological","most undefined","positive","attractive","person","attractive",0,2,"unattractive"
12,19089,"four_sliders",8,"Gabriel",0.55,"male","most undefined","morphological","most undefined","neg_antonym","not unattractive","person","attractive",0,3,"unattractive"
12,19089,"four_sliders",8,"Sophia",0.06,"female","most undefined","morphological","most undefined","antonym","unattractive","person","attractive",0,4,"unattractive"
12,11653,"four_sliders",9,"Kim",0.35,"female","most undefined","morphological","most undefined","neg_positive","not successful","person","successful",0,1,"unsuccessful"
12,11653,"four_sliders",9,"Daniel",0.74,"male","most undefined","morphological","most undefined","positive","successful","person","successful",0,2,"unsuccessful"
12,11653,"four_sliders",9,"Dylan",0.51,"male","most undefined","morphological","most undefined","neg_antonym","not unsuccessful","person","successful",0,3,"unsuccessful"
12,11653,"four_sliders",9,"Melinda",0.13,"female","most undefined","morphological","most undefined","antonym","unsuccessful","person","successful",0,4,"unsuccessful"
12,17287,"four_sliders",10,"Greg",0.29,"male","most undefined","morphological","most undefined","neg_positive","not polite","person","polite",0,1,"impolite"
12,17287,"four_sliders",10,"Mia",0.54,"female","most undefined","morphological","most undefined","neg_antonym","not impolite","person","polite",0,2,"impolite"
12,17287,"four_sliders",10,"Kathleen",0.12,"female","most undefined","morphological","most undefined","antonym","impolite","person","polite",0,3,"impolite"
12,17287,"four_sliders",10,"William",0.9,"male","most undefined","morphological","most undefined","positive","polite","person","polite",0,4,"impolite"
13,43971,"four_sliders",1,"Michael",0.07,"male","most undefined","morphological","most undefined","antonym","unsuccessful","person","successful",0,1,"unsuccessful"
13,43971,"four_sliders",1,"Michelle",0.11,"female","most undefined","morphological","most undefined","neg_positive","not successful","person","successful",0,2,"unsuccessful"
13,43971,"four_sliders",1,"Alexander",0.8,"male","most undefined","morphological","most undefined","positive","successful","person","successful",0,3,"unsuccessful"
13,43971,"four_sliders",1,"Angela",0.11,"female","most undefined","morphological","most undefined","neg_antonym","not unsuccessful","person","successful",0,4,"unsuccessful"
13,17021,"four_sliders",2,"Jeremy",0.04,"male","most undefined","morphological","most undefined","antonym","immature","person","mature",0,1,"immature"
13,17021,"four_sliders",2,"Diana",0.12,"female","most undefined","morphological","most undefined","neg_positive","not mature","person","mature",0,2,"immature"
13,17021,"four_sliders",2,"William",0.87,"male","most undefined","morphological","most undefined","positive","mature","person","mature",0,3,"immature"
13,17021,"four_sliders",2,"Julia",0.51,"female","most undefined","morphological","most undefined","neg_antonym","not immature","person","mature",0,4,"immature"
13,31707,"four_sliders",3,"Veronica",0.08,"female","most undefined","morphological","most undefined","antonym","uneducated","person","educated",0,1,"uneducated"
13,31707,"four_sliders",3,"Gabriel",0.13,"male","most undefined","morphological","most undefined","neg_positive","not educated","person","educated",0,2,"uneducated"
13,31707,"four_sliders",3,"Emma",0.48,"female","most undefined","morphological","most undefined","neg_antonym","not uneducated","person","educated",0,3,"uneducated"
13,31707,"four_sliders",3,"Stephanie",0.92,"female","most undefined","morphological","most undefined","positive","educated","person","educated",0,4,"uneducated"
13,8577,"four_sliders",4,"Monica",0.85,"female","most undefined","morphological","most undefined","positive","attractive","person","attractive",0,1,"unattractive"
13,8577,"four_sliders",4,"Lucas",0.12,"male","most undefined","morphological","most undefined","neg_positive","not attractive","person","attractive",0,2,"unattractive"
13,8577,"four_sliders",4,"Charles",0.06,"male","most undefined","morphological","most undefined","antonym","unattractive","person","attractive",0,3,"unattractive"
13,8577,"four_sliders",4,"Daniel",0.48,"male","most undefined","morphological","most undefined","neg_antonym","not unattractive","person","attractive",0,4,"unattractive"
13,7617,"four_sliders",5,"Cameron",0.48,"male","most undefined","morphological","most undefined","neg_antonym","not unintelligent","person","intelligent",0,1,"unintelligent"
13,7617,"four_sliders",5,"Stephen",0.85,"male","most undefined","morphological","most undefined","positive","intelligent","person","intelligent",0,2,"unintelligent"
13,7617,"four_sliders",5,"Jennifer",0.04,"female","most undefined","morphological","most undefined","antonym","unintelligent","person","intelligent",0,3,"unintelligent"
13,7617,"four_sliders",5,"Sophia",0.1,"female","most undefined","morphological","most undefined","neg_positive","not intelligent","person","intelligent",0,4,"unintelligent"
13,7978,"four_sliders",6,"Tom",0.06,"male","most undefined","morphological","most undefined","antonym","impolite","person","polite",0,1,"impolite"
13,7978,"four_sliders",6,"Lee",0.13,"male","most undefined","morphological","most undefined","neg_positive","not polite","person","polite",0,2,"impolite"
13,7978,"four_sliders",6,"Alison",0.91,"female","most undefined","morphological","most undefined","positive","polite","person","polite",0,3,"impolite"
13,7978,"four_sliders",6,"Greg",0.52,"male","most undefined","morphological","most undefined","neg_antonym","not impolite","person","polite",0,4,"impolite"
13,12357,"four_sliders",7,"Sasha",0.05,"female","most undefined","morphological","most undefined","antonym","unhappy","person","happy",0,1,"unhappy"
13,12357,"four_sliders",7,"Laura",0.89,"female","most undefined","morphological","most undefined","positive","happy","person","happy",0,2,"unhappy"
13,12357,"four_sliders",7,"Claire",0.53,"female","most undefined","morphological","most undefined","neg_antonym","not unhappy","person","happy",0,3,"unhappy"
13,12357,"four_sliders",7,"John",0.11,"male","most undefined","morphological","most undefined","neg_positive","not happy","person","happy",0,4,"unhappy"
13,9826,"four_sliders",8,"Dylan",0.49,"male","most undefined","morphological","most undefined","neg_antonym","not unfriendly","person","friendly",0,1,"unfriendly"
13,9826,"four_sliders",8,"Kim",0.13,"female","most undefined","morphological","most undefined","neg_positive","not friendly","person","friendly",0,2,"unfriendly"
13,9826,"four_sliders",8,"Andrew",0.9,"male","most undefined","morphological","most undefined","positive","friendly","person","friendly",0,3,"unfriendly"
13,9826,"four_sliders",8,"Mia",0.05,"female","most undefined","morphological","most undefined","antonym","unfriendly","person","friendly",0,4,"unfriendly"
13,6229,"four_sliders",9,"Kathleen",0.48,"female","most undefined","morphological","most undefined","neg_antonym","not dishonest","person","honest",0,1,"dishonest"
13,6229,"four_sliders",9,"Anthony",0.9,"male","most undefined","morphological","most undefined","positive","honest","person","honest",0,2,"dishonest"
13,6229,"four_sliders",9,"Samuel",0.05,"male","most undefined","morphological","most undefined","antonym","dishonest","person","honest",0,3,"dishonest"
13,6229,"four_sliders",9,"Eric",0.13,"male","most undefined","morphological","most undefined","neg_positive","not honest","person","honest",0,4,"dishonest"
13,7343,"four_sliders",10,"Alicia",0.47,"female","most undefined","morphological","most undefined","neg_antonym","not uninteresting","person","interesting",0,1,"uninteresting"
13,7343,"four_sliders",10,"Maya",0.04,"female","most undefined","morphological","most undefined","antonym","uninteresting","person","interesting",0,2,"uninteresting"
13,7343,"four_sliders",10,"Melinda",0.93,"female","most undefined","morphological","most undefined","positive","interesting","person","interesting",0,3,"uninteresting"
13,7343,"four_sliders",10,"David",0.11,"male","most undefined","morphological","most undefined","neg_positive","not interesting","person","interesting",0,4,"uninteresting"
14,44307,"four_sliders",1,"Alison",0.31,"female","most undefined","morphological","most undefined","neg_antonym","not immature","person","mature",0,1,"immature"
14,44307,"four_sliders",1,"Tom",0.99,"male","most undefined","morphological","most undefined","positive","mature","person","mature",0,2,"immature"
14,44307,"four_sliders",1,"Alexander",0.02,"male","most undefined","morphological","most undefined","antonym","immature","person","mature",0,3,"immature"
14,44307,"four_sliders",1,"Julia",0.12,"female","most undefined","morphological","most undefined","neg_positive","not mature","person","mature",0,4,"immature"
14,20222,"four_sliders",2,"Kim",0.1,"female","most undefined","morphological","most undefined","neg_positive","not successful","person","successful",0,1,"unsuccessful"
14,20222,"four_sliders",2,"Greg",0.01,"male","most undefined","morphological","most undefined","antonym","unsuccessful","person","successful",0,2,"unsuccessful"
14,20222,"four_sliders",2,"Melinda",0.97,"female","most undefined","morphological","most undefined","positive","successful","person","successful",0,3,"unsuccessful"
14,20222,"four_sliders",2,"Emma",0.48,"female","most undefined","morphological","most undefined","neg_antonym","not unsuccessful","person","successful",0,4,"unsuccessful"
14,18542,"four_sliders",3,"Maya",0.97,"female","most undefined","morphological","most undefined","positive","honest","person","honest",0,1,"dishonest"
14,18542,"four_sliders",3,"Monica",0.49,"female","most undefined","morphological","most undefined","neg_antonym","not dishonest","person","honest",0,2,"dishonest"
14,18542,"four_sliders",3,"William",0.02,"male","most undefined","morphological","most undefined","antonym","dishonest","person","honest",0,3,"dishonest"
14,18542,"four_sliders",3,"Veronica",0.14,"female","most undefined","morphological","most undefined","neg_positive","not honest","person","honest",0,4,"dishonest"
14,16151,"four_sliders",4,"Laura",0,"female","most undefined","morphological","most undefined","antonym","unfriendly","person","friendly",0,1,"unfriendly"
14,16151,"four_sliders",4,"Diana",0.21,"female","most undefined","morphological","most undefined","neg_positive","not friendly","person","friendly",0,2,"unfriendly"
14,16151,"four_sliders",4,"Jeremy",0.73,"male","most undefined","morphological","most undefined","neg_antonym","not unfriendly","person","friendly",0,3,"unfriendly"
14,16151,"four_sliders",4,"Sophia",0.99,"female","most undefined","morphological","most undefined","positive","friendly","person","friendly",0,4,"unfriendly"
14,21191,"four_sliders",5,"Lee",0.97,"male","most undefined","morphological","most undefined","positive","interesting","person","interesting",0,1,"uninteresting"
14,21191,"four_sliders",5,"Cameron",0,"male","most undefined","morphological","most undefined","antonym","uninteresting","person","interesting",0,2,"uninteresting"
14,21191,"four_sliders",5,"Michelle",0.14,"female","most undefined","morphological","most undefined","neg_positive","not interesting","person","interesting",0,3,"uninteresting"
14,21191,"four_sliders",5,"Sasha",0.79,"female","most undefined","morphological","most undefined","neg_antonym","not uninteresting","person","interesting",0,4,"uninteresting"
14,17855,"four_sliders",6,"Mia",0.76,"female","most undefined","morphological","most undefined","neg_antonym","not unhappy","person","happy",0,1,"unhappy"
14,17855,"four_sliders",6,"John",0,"male","most undefined","morphological","most undefined","antonym","unhappy","person","happy",0,2,"unhappy"
14,17855,"four_sliders",6,"Alicia",1,"female","most undefined","morphological","most undefined","positive","happy","person","happy",0,3,"unhappy"
14,17855,"four_sliders",6,"Samuel",0.08,"male","most undefined","morphological","most undefined","neg_positive","not happy","person","happy",0,4,"unhappy"
14,14240,"four_sliders",7,"Daniel",1,"male","most undefined","morphological","most undefined","positive","educated","person","educated",0,1,"uneducated"
14,14240,"four_sliders",7,"David",0,"male","most undefined","morphological","most undefined","antonym","uneducated","person","educated",0,2,"uneducated"
14,14240,"four_sliders",7,"Anthony",0.12,"male","most undefined","morphological","most undefined","neg_positive","not educated","person","educated",0,3,"uneducated"
14,14240,"four_sliders",7,"Claire",0.73,"female","most undefined","morphological","most undefined","neg_antonym","not uneducated","person","educated",0,4,"uneducated"
14,11144,"four_sliders",8,"Charles",0.8,"male","most undefined","morphological","most undefined","neg_antonym","not impolite","person","polite",0,1,"impolite"
14,11144,"four_sliders",8,"Angela",0.97,"female","most undefined","morphological","most undefined","positive","polite","person","polite",0,2,"impolite"
14,11144,"four_sliders",8,"Gabriel",0.01,"male","most undefined","morphological","most undefined","antonym","impolite","person","polite",0,3,"impolite"
14,11144,"four_sliders",8,"Eric",0.22,"male","most undefined","morphological","most undefined","neg_positive","not polite","person","polite",0,4,"impolite"
14,14031,"four_sliders",9,"Jennifer",0.97,"female","most undefined","morphological","most undefined","positive","intelligent","person","intelligent",0,1,"unintelligent"
14,14031,"four_sliders",9,"Kathleen",0.17,"female","most undefined","morphological","most undefined","neg_positive","not intelligent","person","intelligent",0,2,"unintelligent"
14,14031,"four_sliders",9,"Andrew",0.65,"male","most undefined","morphological","most undefined","neg_antonym","not unintelligent","person","intelligent",0,3,"unintelligent"
14,14031,"four_sliders",9,"Stephen",0,"male","most undefined","morphological","most undefined","antonym","unintelligent","person","intelligent",0,4,"unintelligent"
14,13575,"four_sliders",10,"Dylan",0.62,"male","most undefined","morphological","most undefined","neg_antonym","not unattractive","person","attractive",0,1,"unattractive"
14,13575,"four_sliders",10,"Michael",0,"male","most undefined","morphological","most undefined","antonym","unattractive","person","attractive",0,2,"unattractive"
14,13575,"four_sliders",10,"Lucas",0.99,"male","most undefined","morphological","most undefined","positive","attractive","person","attractive",0,3,"unattractive"
14,13575,"four_sliders",10,"Stephanie",0,"female","most undefined","morphological","most undefined","neg_positive","not attractive","person","attractive",0,4,"unattractive"
15,33607,"four_sliders",1,"Diana",0.16,"female","most undefined","morphological","most undefined","antonym","unfriendly","person","friendly",0,1,"unfriendly"
15,33607,"four_sliders",1,"Lucas",0.9,"male","most undefined","morphological","most undefined","positive","friendly","person","friendly",0,2,"unfriendly"
15,33607,"four_sliders",1,"William",0.42,"male","most undefined","morphological","most undefined","neg_positive","not friendly","person","friendly",0,3,"unfriendly"
15,33607,"four_sliders",1,"Andrew",0.72,"male","most undefined","morphological","most undefined","neg_antonym","not unfriendly","person","friendly",0,4,"unfriendly"
15,20959,"four_sliders",2,"Eric",0.87,"male","most undefined","morphological","most undefined","positive","polite","person","polite",0,1,"impolite"
15,20959,"four_sliders",2,"Dylan",0.05,"male","most undefined","morphological","most undefined","antonym","impolite","person","polite",0,2,"impolite"
15,20959,"four_sliders",2,"Lee",0.25,"male","most undefined","morphological","most undefined","neg_positive","not polite","person","polite",0,3,"impolite"
15,20959,"four_sliders",2,"Kim",0.63,"female","most undefined","morphological","most undefined","neg_antonym","not impolite","person","polite",0,4,"impolite"
15,16304,"four_sliders",3,"Emma",0.55,"female","most undefined","morphological","most undefined","neg_antonym","not unattractive","person","attractive",0,1,"unattractive"
15,16304,"four_sliders",3,"Alexander",0.28,"male","most undefined","morphological","most undefined","neg_positive","not attractive","person","attractive",0,2,"unattractive"
15,16304,"four_sliders",3,"David",0.92,"male","most undefined","morphological","most undefined","positive","attractive","person","attractive",0,3,"unattractive"
15,16304,"four_sliders",3,"Samuel",0.06,"male","most undefined","morphological","most undefined","antonym","unattractive","person","attractive",0,4,"unattractive"
15,19568,"four_sliders",4,"Michael",0.29,"male","most undefined","morphological","most undefined","neg_positive","not educated","person","educated",0,1,"uneducated"
15,19568,"four_sliders",4,"Julia",0.55,"female","most undefined","morphological","most undefined","neg_antonym","not uneducated","person","educated",0,2,"uneducated"
15,19568,"four_sliders",4,"Laura",0.08,"female","most undefined","morphological","most undefined","antonym","uneducated","person","educated",0,3,"uneducated"
15,19568,"four_sliders",4,"John",0.94,"male","most undefined","morphological","most undefined","positive","educated","person","educated",0,4,"uneducated"
15,108887,"four_sliders",5,"Sophia",0.57,"female","most undefined","morphological","most undefined","neg_antonym","not uninteresting","person","interesting",0,1,"uninteresting"
15,108887,"four_sliders",5,"Daniel",0.93,"male","most undefined","morphological","most undefined","positive","interesting","person","interesting",0,2,"uninteresting"
15,108887,"four_sliders",5,"Sasha",0.26,"female","most undefined","morphological","most undefined","neg_positive","not interesting","person","interesting",0,3,"uninteresting"
15,108887,"four_sliders",5,"Gabriel",0.08,"male","most undefined","morphological","most undefined","antonym","uninteresting","person","interesting",0,4,"uninteresting"
15,9568,"four_sliders",6,"Cameron",0.26,"male","most undefined","morphological","most undefined","neg_positive","not happy","person","happy",0,1,"unhappy"
15,9568,"four_sliders",6,"Alison",0.09,"female","most undefined","morphological","most undefined","antonym","unhappy","person","happy",0,2,"unhappy"
15,9568,"four_sliders",6,"Monica",0.61,"female","most undefined","morphological","most undefined","neg_antonym","not unhappy","person","happy",0,3,"unhappy"
15,9568,"four_sliders",6,"Greg",0.94,"male","most undefined","morphological","most undefined","positive","happy","person","happy",0,4,"unhappy"
15,8448,"four_sliders",7,"Charles",0.6,"male","most undefined","morphological","most undefined","neg_antonym","not dishonest","person","honest",0,1,"dishonest"
