"workerid","rt","trial_type","trial_num","name","lexant","positive","endpoint_high","morphant","adjective","referent","adjective_type","antonym_type","gender","endpoint_low","response"
0,8232,"one_slider",1,"Cameron","stupid","intelligent","the most intelligent<br>person in the world","unintelligent","intelligent","person","positive","morphant","male","the most unintelligent<br>person in the world",0.5
0,3945,"one_slider",2,"David","fake","sincere","the most sincere<br>person in the world","insincere","insincere","person","morphant","morphant","male","the most insincere<br>person in the world",0.33
0,3492,"one_slider",3,"Sophia","cruel","kind","the most kind<br>person in the world","unkind","not unkind","person","neg_morphant","morphant","female","the most unkind<br>person in the world",0.6
0,3201,"one_slider",4,"Lucas","traitorous","patriotic","the most patriotic<br>person in the world","unpatriotic","not patriotic","person","neg_positive","morphant","male","the most unpatriotic<br>person in the world",0.28
0,3899,"one_slider",5,"Maya","rude","polite","the most polite<br>person in the world","impolite","not polite","person","neg_positive","morphant","female","the most impolite<br>person in the world",0.34
0,3672,"one_slider",6,"Stephanie","bigoted","tolerant","the most tolerant<br>person in the world","intolerant","intolerant","person","morphant","morphant","female","the most intolerant<br>person in the world",0.68
0,7436,"one_slider",7,"Stephen","stingy","generous","the most generous<br>person in the world","ungenerous","not ungenerous","person","neg_morphant","morphant","male","the most ungenerous<br>person in the world",0.56
0,4664,"one_slider",8,"Monica","wasteful","resourceful","the most resourceful<br>person in the world","unresourceful","unresourceful","person","morphant","morphant","female","the most unresourceful<br>person in the world",0.33
0,1984,"one_slider",9,"Melinda","lazy","ambitious","the most ambitious<br>person in the world","unambitious","ambitious","person","positive","morphant","female","the most unambitious<br>person in the world",0.67
0,4976,"one_slider",10,"Eric","ugly","attractive","the most attractive<br>person in the world","unattractive","not unattractive","person","neg_morphant","morphant","male","the most unattractive<br>person in the world",0.28
0,2696,"one_slider",11,"Anthony","boring","interesting","the most interesting<br>person in the world","uninteresting","interesting","person","positive","morphant","male","the most uninteresting<br>person in the world",0.61
0,1406,"one_slider",12,"Jennifer","childish","mature","the most mature<br>person in the world","immature","not mature","person","neg_positive","morphant","female","the most immature<br>person in the world",0.63
1,14264,"one_slider",1,"Alexander","boring","interesting","the most interesting<br>person in the world","uninteresting","uninteresting","person","morphant","morphant","male","the most uninteresting<br>person in the world",0.19
1,9028,"one_slider",2,"Michael","ugly","attractive","the most attractive<br>person in the world","unattractive","not attractive","person","neg_positive","morphant","male","the most unattractive<br>person in the world",0.48
1,4503,"one_slider",3,"Michelle","resentful","forgiving","the most forgiving<br>person in the world","unforgiving","forgiving","person","positive","morphant","female","the most unforgiving<br>person in the world",0.71
1,6743,"one_slider",4,"John","cruel","kind","the most kind<br>person in the world","unkind","not unkind","person","neg_morphant","morphant","male","the most unkind<br>person in the world",0.46
1,5286,"one_slider",5,"Julia","deceitful","honest","the most honest<br>person in the world","dishonest","honest","person","positive","morphant","female","the most dishonest<br>person in the world",0.83
1,5990,"one_slider",6,"Stephen","cold","affectionate","the most affectionate<br>person in the world","unaffectionate","unaffectionate","person","morphant","morphant","male","the most unaffectionate<br>person in the world",0.36
1,5039,"one_slider",7,"Sophia","childish","mature","the most mature<br>person in the world","immature","not immature","person","neg_morphant","morphant","female","the most immature<br>person in the world",0.49
1,13382,"one_slider",8,"Eric","traitorous","patriotic","the most patriotic<br>person in the world","unpatriotic","unpatriotic","person","morphant","morphant","male","the most unpatriotic<br>person in the world",0.32
1,5757,"one_slider",9,"Melinda","stingy","generous","the most generous<br>person in the world","ungenerous","not ungenerous","person","neg_morphant","morphant","female","the most ungenerous<br>person in the world",0.48
1,5783,"one_slider",10,"Alicia","ignorant","educated","the most educated<br>person in the world","uneducated","not educated","person","neg_positive","morphant","female","the most uneducated<br>person in the world",0.33
1,4847,"one_slider",11,"Angela","rude","polite","the most polite<br>person in the world","impolite","not polite","person","neg_positive","morphant","female","the most impolite<br>person in the world",0.28
1,3013,"one_slider",12,"David","flaky","reliable","the most reliable<br>person in the world","unreliable","reliable","person","positive","morphant","male","the most unreliable<br>person in the world",0.74
2,6707,"one_slider",1,"Michael","traitorous","patriotic","the most patriotic<br>person in the world","unpatriotic","not patriotic","person","neg_positive","morphant","male","the most unpatriotic<br>person in the world",0.51
2,2924,"one_slider",2,"William","cruel","kind","the most kind<br>person in the world","unkind","kind","person","positive","morphant","male","the most unkind<br>person in the world",0.55
2,2192,"one_slider",3,"Monica","sad","happy","the most happy<br>person in the world","unhappy","happy","person","positive","morphant","female","the most unhappy<br>person in the world",0.59
2,3121,"one_slider",4,"Cameron","stingy","generous","the most generous<br>person in the world","ungenerous","ungenerous","person","morphant","morphant","male","the most ungenerous<br>person in the world",0.45
2,4265,"one_slider",5,"Sophia","mean","friendly","the most friendly<br>person in the world","unfriendly","not unfriendly","person","neg_morphant","morphant","female","the most unfriendly<br>person in the world",0.51
2,2456,"one_slider",6,"Jennifer","lazy","ambitious","the most ambitious<br>person in the world","unambitious","ambitious","person","positive","morphant","female","the most unambitious<br>person in the world",0.53
2,3711,"one_slider",7,"Kim","resentful","forgiving","the most forgiving<br>person in the world","unforgiving","unforgiving","person","morphant","morphant","female","the most unforgiving<br>person in the world",0.48
2,2323,"one_slider",8,"Lee","childish","mature","the most mature<br>person in the world","immature","not mature","person","neg_positive","morphant","male","the most immature<br>person in the world",0.56
2,40925,"one_slider",9,"Anthony","cold","affectionate","the most affectionate<br>person in the world","unaffectionate","not affectionate","person","neg_positive","morphant","male","the most unaffectionate<br>person in the world",0.46
2,2242,"one_slider",10,"Melinda","flaky","reliable","the most reliable<br>person in the world","unreliable","not unreliable","person","neg_morphant","morphant","female","the most unreliable<br>person in the world",0.45
2,3722,"one_slider",11,"Claire","bigoted","tolerant","the most tolerant<br>person in the world","intolerant","intolerant","person","morphant","morphant","female","the most intolerant<br>person in the world",0.45
2,2891,"one_slider",12,"Eric","rude","polite","the most polite<br>person in the world","impolite","not impolite","person","neg_morphant","morphant","male","the most impolite<br>person in the world",0.54
3,5180,"one_slider",1,"David","rude","polite","the most polite<br>person in the world","impolite","impolite","person","morphant","morphant","male","the most impolite<br>person in the world",0.37
3,3527,"one_slider",2,"Stephen","cruel","kind","the most kind<br>person in the world","unkind","not unkind","person","neg_morphant","morphant","male","the most unkind<br>person in the world",0.54
3,4455,"one_slider",3,"John","traitorous","patriotic","the most patriotic<br>person in the world","unpatriotic","patriotic","person","positive","morphant","male","the most unpatriotic<br>person in the world",0.77
3,5403,"one_slider",4,"Michelle","ugly","attractive","the most attractive<br>person in the world","unattractive","not unattractive","person","neg_morphant","morphant","female","the most unattractive<br>person in the world",0.53
3,4486,"one_slider",5,"Lee","stupid","intelligent","the most intelligent<br>person in the world","unintelligent","not intelligent","person","neg_positive","morphant","male","the most unintelligent<br>person in the world",0.36
3,3539,"one_slider",6,"Julia","mean","friendly","the most friendly<br>person in the world","unfriendly","not friendly","person","neg_positive","morphant","female","the most unfriendly<br>person in the world",0.23
3,4120,"one_slider",7,"Alexander","ignorant","educated","the most educated<br>person in the world","uneducated","not educated","person","neg_positive","morphant","male","the most uneducated<br>person in the world",0.41
3,4251,"one_slider",8,"Melinda","sad","happy","the most happy<br>person in the world","unhappy","happy","person","positive","morphant","female","the most unhappy<br>person in the world",0.65
3,5233,"one_slider",9,"Laura","childish","mature","the most mature<br>person in the world","immature","immature","person","morphant","morphant","female","the most immature<br>person in the world",0.26
3,5737,"one_slider",10,"Greg","lazy","ambitious","the most ambitious<br>person in the world","unambitious","unambitious","person","morphant","morphant","male","the most unambitious<br>person in the world",0.4
3,3460,"one_slider",11,"Veronica","crazy","rational","the most rational<br>person in the world","irrational","rational","person","positive","morphant","female","the most irrational<br>person in the world",0.62
3,8916,"one_slider",12,"Michael","fake","sincere","the most sincere<br>person in the world","insincere","not insincere","person","neg_morphant","morphant","male","the most insincere<br>person in the world",0.54
4,5725,"one_slider",1,"David","cruel","kind","the most kind<br>person in the world","unkind","not unkind","person","neg_morphant","morphant","male","the most unkind<br>person in the world",0.66
4,3671,"one_slider",2,"Gabriel","stupid","intelligent","the most intelligent<br>person in the world","unintelligent","unintelligent","person","morphant","morphant","male","the most unintelligent<br>person in the world",0.13
4,2008,"one_slider",3,"Maya","ugly","attractive","the most attractive<br>person in the world","unattractive","unattractive","person","morphant","morphant","female","the most unattractive<br>person in the world",0.22
4,3002,"one_slider",4,"Greg","sad","happy","the most happy<br>person in the world","unhappy","not unhappy","person","neg_morphant","morphant","male","the most unhappy<br>person in the world",0.29
4,2275,"one_slider",5,"Eric","bigoted","tolerant","the most tolerant<br>person in the world","intolerant","tolerant","person","positive","morphant","male","the most intolerant<br>person in the world",0.71
4,1460,"one_slider",6,"Angela","mean","friendly","the most friendly<br>person in the world","unfriendly","friendly","person","positive","morphant","female","the most unfriendly<br>person in the world",0.64
4,1839,"one_slider",7,"Lucas","lazy","ambitious","the most ambitious<br>person in the world","unambitious","not unambitious","person","neg_morphant","morphant","male","the most unambitious<br>person in the world",0.26
4,2368,"one_slider",8,"Tom","ignorant","educated","the most educated<br>person in the world","uneducated","not educated","person","neg_positive","morphant","male","the most uneducated<br>person in the world",0.28
4,1621,"one_slider",9,"Alicia","traitorous","patriotic","the most patriotic<br>person in the world","unpatriotic","not patriotic","person","neg_positive","morphant","female","the most unpatriotic<br>person in the world",0.25
4,2820,"one_slider",10,"Cameron","boring","interesting","the most interesting<br>person in the world","uninteresting","uninteresting","person","morphant","morphant","male","the most uninteresting<br>person in the world",0.22
4,2212,"one_slider",11,"Anthony","cold","affectionate","the most affectionate<br>person in the world","unaffectionate","not affectionate","person","neg_positive","morphant","male","the most unaffectionate<br>person in the world",0.26
4,2095,"one_slider",12,"Laura","crazy","rational","the most rational<br>person in the world","irrational","rational","person","positive","morphant","female","the most irrational<br>person in the world",0.7
5,6076,"one_slider",1,"David","deceitful","honest","the most honest<br>person in the world","dishonest","honest","person","positive","morphant","male","the most dishonest<br>person in the world",0.51
5,4095,"one_slider",2,"Lucas","mean","friendly","the most friendly<br>person in the world","unfriendly","friendly","person","positive","morphant","male","the most unfriendly<br>person in the world",0.5
5,4742,"one_slider",3,"Melinda","childish","mature","the most mature<br>person in the world","immature","not immature","person","neg_morphant","morphant","female","the most immature<br>person in the world",0.49
5,3829,"one_slider",4,"Anthony","rude","polite","the most polite<br>person in the world","impolite","polite","person","positive","morphant","male","the most impolite<br>person in the world",0.49
5,4745,"one_slider",5,"John","wasteful","resourceful","the most resourceful<br>person in the world","unresourceful","unresourceful","person","morphant","morphant","male","the most unresourceful<br>person in the world",0.47
5,4753,"one_slider",6,"Michelle","bigoted","tolerant","the most tolerant<br>person in the world","intolerant","not intolerant","person","neg_morphant","morphant","female","the most intolerant<br>person in the world",0.49
5,5509,"one_slider",7,"Laura","cruel","kind","the most kind<br>person in the world","unkind","not kind","person","neg_positive","morphant","female","the most unkind<br>person in the world",0.4
5,4165,"one_slider",8,"Alicia","stupid","intelligent","the most intelligent<br>person in the world","unintelligent","not unintelligent","person","neg_morphant","morphant","female","the most unintelligent<br>person in the world",0.49
5,4571,"one_slider",9,"Veronica","sad","happy","the most happy<br>person in the world","unhappy","not happy","person","neg_positive","morphant","female","the most unhappy<br>person in the world",0.43
5,3196,"one_slider",10,"Stephanie","flaky","reliable","the most reliable<br>person in the world","unreliable","unreliable","person","morphant","morphant","female","the most unreliable<br>person in the world",0.43
5,4125,"one_slider",11,"Angela","resentful","forgiving","the most forgiving<br>person in the world","unforgiving","unforgiving","person","morphant","morphant","female","the most unforgiving<br>person in the world",0.49
5,5221,"one_slider",12,"Sophia","traitorous","patriotic","the most patriotic<br>person in the world","unpatriotic","not patriotic","person","neg_positive","morphant","female","the most unpatriotic<br>person in the world",0.42
6,29191,"one_slider",1,"John","deceitful","honest","the most honest<br>person in the world","dishonest","honest","person","positive","morphant","male","the most dishonest<br>person in the world",0.5
6,2839,"one_slider",2,"Veronica","ignorant","educated","the most educated<br>person in the world","uneducated","uneducated","person","morphant","morphant","female","the most uneducated<br>person in the world",0.45
6,2183,"one_slider",3,"Eric","flaky","reliable","the most reliable<br>person in the world","unreliable","unreliable","person","morphant","morphant","male","the most unreliable<br>person in the world",0.49
6,2767,"one_slider",4,"Angela","sad","happy","the most happy<br>person in the world","unhappy","not happy","person","neg_positive","morphant","female","the most unhappy<br>person in the world",0.48
6,2551,"one_slider",5,"Alexander","boring","interesting","the most interesting<br>person in the world","uninteresting","interesting","person","positive","morphant","male","the most uninteresting<br>person in the world",0.49
6,2663,"one_slider",6,"Sophia","stingy","generous","the most generous<br>person in the world","ungenerous","ungenerous","person","morphant","morphant","female","the most ungenerous<br>person in the world",0.5
6,2488,"one_slider",7,"Lucas","cold","affectionate","the most affectionate<br>person in the world","unaffectionate","not unaffectionate","person","neg_morphant","morphant","male","the most unaffectionate<br>person in the world",0.49
6,2519,"one_slider",8,"Alicia","rude","polite","the most polite<br>person in the world","impolite","polite","person","positive","morphant","female","the most impolite<br>person in the world",0.49
6,2775,"one_slider",9,"Maya","childish","mature","the most mature<br>person in the world","immature","not immature","person","neg_morphant","morphant","female","the most immature<br>person in the world",0.49
6,2471,"one_slider",10,"Michelle","wasteful","resourceful","the most resourceful<br>person in the world","unresourceful","not resourceful","person","neg_positive","morphant","female","the most unresourceful<br>person in the world",0.49
6,2703,"one_slider",11,"Stephanie","lazy","ambitious","the most ambitious<br>person in the world","unambitious","not unambitious","person","neg_morphant","morphant","female","the most unambitious<br>person in the world",0.51
6,2880,"one_slider",12,"Tom","traitorous","patriotic","the most patriotic<br>person in the world","unpatriotic","not patriotic","person","neg_positive","morphant","male","the most unpatriotic<br>person in the world",0.52
7,34418,"one_slider",1,"Stephanie","stingy","generous","the most generous<br>person in the world","ungenerous","ungenerous","person","morphant","morphant","female","the most ungenerous<br>person in the world",0.28
7,21458,"one_slider",2,"Melinda","crazy","rational","the most rational<br>person in the world","irrational","rational","person","positive","morphant","female","the most irrational<br>person in the world",0.82
7,21203,"one_slider",3,"Maya","deceitful","honest","the most honest<br>person in the world","dishonest","not honest","person","neg_positive","morphant","female","the most dishonest<br>person in the world",0.78
7,20167,"one_slider",4,"Julia","cruel","kind","the most kind<br>person in the world","unkind","not kind","person","neg_positive","morphant","female","the most unkind<br>person in the world",0.32
7,49926,"one_slider",5,"Kim","mean","friendly","the most friendly<br>person in the world","unfriendly","not unfriendly","person","neg_morphant","morphant","female","the most unfriendly<br>person in the world",0.69
7,29087,"one_slider",6,"John","wasteful","resourceful","the most resourceful<br>person in the world","unresourceful","not unresourceful","person","neg_morphant","morphant","male","the most unresourceful<br>person in the world",0.58
7,20307,"one_slider",7,"David","ugly","attractive","the most attractive<br>person in the world","unattractive","unattractive","person","morphant","morphant","male","the most unattractive<br>person in the world",0.3
7,28047,"one_slider",8,"Eric","sad","happy","the most happy<br>person in the world","unhappy","happy","person","positive","morphant","male","the most unhappy<br>person in the world",0.79
7,21214,"one_slider",9,"William","fake","sincere","the most sincere<br>person in the world","insincere","not sincere","person","neg_positive","morphant","male","the most insincere<br>person in the world",0.25
7,30949,"one_slider",10,"Tom","cold","affectionate","the most affectionate<br>person in the world","unaffectionate","affectionate","person","positive","morphant","male","the most unaffectionate<br>person in the world",0.73
7,16932,"one_slider",11,"Sophia","ignorant","educated","the most educated<br>person in the world","uneducated","not uneducated","person","neg_morphant","morphant","female","the most uneducated<br>person in the world",0.57
7,20381,"one_slider",12,"Daniel","stupid","intelligent","the most intelligent<br>person in the world","unintelligent","unintelligent","person","morphant","morphant","male","the most unintelligent<br>person in the world",0.27
8,11972,"one_slider",1,"Alicia","cold","affectionate","the most affectionate<br>person in the world","unaffectionate","unaffectionate","person","morphant","morphant","female","the most unaffectionate<br>person in the world",0.21
8,7143,"one_slider",2,"Sophia","resentful","forgiving","the most forgiving<br>person in the world","unforgiving","forgiving","person","positive","morphant","female","the most unforgiving<br>person in the world",0.83
8,5419,"one_slider",3,"Gabriel","ignorant","educated","the most educated<br>person in the world","uneducated","uneducated","person","morphant","morphant","male","the most uneducated<br>person in the world",0.39
8,9051,"one_slider",4,"Melinda","fake","sincere","the most sincere<br>person in the world","insincere","not insincere","person","neg_morphant","morphant","female","the most insincere<br>person in the world",0.66
8,6706,"one_slider",5,"Alexander","stupid","intelligent","the most intelligent<br>person in the world","unintelligent","not intelligent","person","neg_positive","morphant","male","the most unintelligent<br>person in the world",0.25
8,6600,"one_slider",6,"Julia","rude","polite","the most polite<br>person in the world","impolite","polite","person","positive","morphant","female","the most impolite<br>person in the world",0.76
8,7680,"one_slider",7,"Anthony","mean","friendly","the most friendly<br>person in the world","unfriendly","not friendly","person","neg_positive","morphant","male","the most unfriendly<br>person in the world",0.26
8,7646,"one_slider",8,"Michael","childish","mature","the most mature<br>person in the world","immature","mature","person","positive","morphant","male","the most immature<br>person in the world",0.89
8,4392,"one_slider",9,"Maya","sad","happy","the most happy<br>person in the world","unhappy","not happy","person","neg_positive","morphant","female","the most unhappy<br>person in the world",0.21
8,4884,"one_slider",10,"Tom","flaky","reliable","the most reliable<br>person in the world","unreliable","not unreliable","person","neg_morphant","morphant","male","the most unreliable<br>person in the world",0.71
8,4415,"one_slider",11,"Stephanie","boring","interesting","the most interesting<br>person in the world","uninteresting","not uninteresting","person","neg_morphant","morphant","female","the most uninteresting<br>person in the world",0.65
8,6407,"one_slider",12,"Daniel","wasteful","resourceful","the most resourceful<br>person in the world","unresourceful","unresourceful","person","morphant","morphant","male","the most unresourceful<br>person in the world",0.11
9,6159,"one_slider",1,"Cameron","crazy","rational","the most rational<br>person in the world","irrational","rational","person","positive","morphant","male","the most irrational<br>person in the world",0.6
9,2393,"one_slider",2,"John","deceitful","honest","the most honest<br>person in the world","dishonest","dishonest","person","morphant","morphant","male","the most dishonest<br>person in the world",0.3
9,3647,"one_slider",3,"Angela","stupid","intelligent","the most intelligent<br>person in the world","unintelligent","not unintelligent","person","neg_morphant","morphant","female","the most unintelligent<br>person in the world",0.55
9,2860,"one_slider",4,"David","resentful","forgiving","the most forgiving<br>person in the world","unforgiving","not forgiving","person","neg_positive","morphant","male","the most unforgiving<br>person in the world",0.33
9,1987,"one_slider",5,"Alicia","ugly","attractive","the most attractive<br>person in the world","unattractive","attractive","person","positive","morphant","female","the most unattractive<br>person in the world",0.65
9,2258,"one_slider",6,"Lee","childish","mature","the most mature<br>person in the world","immature","not mature","person","neg_positive","morphant","male","the most immature<br>person in the world",0.32
9,2771,"one_slider",7,"Kathleen","bigoted","tolerant","the most tolerant<br>person in the world","intolerant","tolerant","person","positive","morphant","female","the most intolerant<br>person in the world",0.64
9,1921,"one_slider",8,"Laura","flaky","reliable","the most reliable<br>person in the world","unreliable","unreliable","person","morphant","morphant","female","the most unreliable<br>person in the world",0.3
9,3134,"one_slider",9,"Kim","boring","interesting","the most interesting<br>person in the world","uninteresting","uninteresting","person","morphant","morphant","female","the most uninteresting<br>person in the world",0.31
9,3942,"one_slider",10,"Claire","wasteful","resourceful","the most resourceful<br>person in the world","unresourceful","not unresourceful","person","neg_morphant","morphant","female","the most unresourceful<br>person in the world",0.67
9,3260,"one_slider",11,"Monica","rude","polite","the most polite<br>person in the world","impolite","not impolite","person","neg_morphant","morphant","female","the most impolite<br>person in the world",0.61
9,6926,"one_slider",12,"Stephen","sad","happy","the most happy<br>person in the world","unhappy","not happy","person","neg_positive","morphant","male","the most unhappy<br>person in the world",0.27
10,7722,"one_slider",1,"Stephanie","lazy","ambitious","the most ambitious<br>person in the world","unambitious","ambitious","person","positive","morphant","female","the most unambitious<br>person in the world",0.75
10,3414,"one_slider",2,"Jennifer","flaky","reliable","the most reliable<br>person in the world","unreliable","unreliable","person","morphant","morphant","female","the most unreliable<br>person in the world",0.07
10,3390,"one_slider",3,"Julia","crazy","rational","the most rational<br>person in the world","irrational","irrational","person","morphant","morphant","female","the most irrational<br>person in the world",0.03
10,3534,"one_slider",4,"Cameron","fake","sincere","the most sincere<br>person in the world","insincere","not sincere","person","neg_positive","morphant","male","the most insincere<br>person in the world",0.07
10,4304,"one_slider",5,"Maya","boring","interesting","the most interesting<br>person in the world","uninteresting","not interesting","person","neg_positive","morphant","female","the most uninteresting<br>person in the world",0.29
10,8252,"one_slider",6,"Daniel","stingy","generous","the most generous<br>person in the world","ungenerous","generous","person","positive","morphant","male","the most ungenerous<br>person in the world",0.86
10,6799,"one_slider",7,"Angela","childish","mature","the most mature<br>person in the world","immature","not immature","person","neg_morphant","morphant","female","the most immature<br>person in the world",0.72
10,5853,"one_slider",8,"William","wasteful","resourceful","the most resourceful<br>person in the world","unresourceful","not resourceful","person","neg_positive","morphant","male","the most unresourceful<br>person in the world",0.08
10,4807,"one_slider",9,"Michael","cruel","kind","the most kind<br>person in the world","unkind","not unkind","person","neg_morphant","morphant","male","the most unkind<br>person in the world",0.81
10,2567,"one_slider",10,"Melinda","rude","polite","the most polite<br>person in the world","impolite","polite","person","positive","morphant","female","the most impolite<br>person in the world",0.84
10,3269,"one_slider",11,"Stephen","traitorous","patriotic","the most patriotic<br>person in the world","unpatriotic","not unpatriotic","person","neg_morphant","morphant","male","the most unpatriotic<br>person in the world",0.68
10,3337,"one_slider",12,"Laura","resentful","forgiving","the most forgiving<br>person in the world","unforgiving","unforgiving","person","morphant","morphant","female","the most unforgiving<br>person in the world",0.11
11,3790,"one_slider",1,"Michelle","boring","interesting","the most interesting<br>person in the world","uninteresting","interesting","person","positive","morphant","female","the most uninteresting<br>person in the world",0.7
11,2063,"one_slider",2,"Cameron","crazy","rational","the most rational<br>person in the world","irrational","irrational","person","morphant","morphant","male","the most irrational<br>person in the world",0.24
11,2032,"one_slider",3,"Sophia","rude","polite","the most polite<br>person in the world","impolite","impolite","person","morphant","morphant","female","the most impolite<br>person in the world",0.16
11,3343,"one_slider",4,"Monica","bigoted","tolerant","the most tolerant<br>person in the world","intolerant","not intolerant","person","neg_morphant","morphant","female","the most intolerant<br>person in the world",0.49
11,10288,"one_slider",5,"Greg","deceitful","honest","the most honest<br>person in the world","dishonest","not honest","person","neg_positive","morphant","male","the most dishonest<br>person in the world",0.2
11,3296,"one_slider",6,"Angela","traitorous","patriotic","the most patriotic<br>person in the world","unpatriotic","not patriotic","person","neg_positive","morphant","female","the most unpatriotic<br>person in the world",0.2
11,2272,"one_slider",7,"Claire","resentful","forgiving","the most forgiving<br>person in the world","unforgiving","not unforgiving","person","neg_morphant","morphant","female","the most unforgiving<br>person in the world",0.5
11,3864,"one_slider",8,"Lee","mean","friendly","the most friendly<br>person in the world","unfriendly","unfriendly","person","morphant","morphant","male","the most unfriendly<br>person in the world",0.15
11,2336,"one_slider",9,"Julia","childish","mature","the most mature<br>person in the world","immature","not mature","person","neg_positive","morphant","female","the most immature<br>person in the world",0.19
11,2536,"one_slider",10,"Melinda","sad","happy","the most happy<br>person in the world","unhappy","happy","person","positive","morphant","female","the most unhappy<br>person in the world",0.83
11,2144,"one_slider",11,"Michael","ignorant","educated","the most educated<br>person in the world","uneducated","educated","person","positive","morphant","male","the most uneducated<br>person in the world",0.87
11,2120,"one_slider",12,"Gabriel","cruel","kind","the most kind<br>person in the world","unkind","not unkind","person","neg_morphant","morphant","male","the most unkind<br>person in the world",0.47
12,16838,"one_slider",1,"Laura","lazy","ambitious","the most ambitious<br>person in the world","unambitious","unambitious","person","morphant","morphant","female","the most unambitious<br>person in the world",0.32
12,4828,"one_slider",2,"Alexander","sad","happy","the most happy<br>person in the world","unhappy","not happy","person","neg_positive","morphant","male","the most unhappy<br>person in the world",0.32
12,7150,"one_slider",3,"Kim","deceitful","honest","the most honest<br>person in the world","dishonest","dishonest","person","morphant","morphant","female","the most dishonest<br>person in the world",0.25
12,6390,"one_slider",4,"Lee","resentful","forgiving","the most forgiving<br>person in the world","unforgiving","forgiving","person","positive","morphant","male","the most unforgiving<br>person in the world",0.78
12,6680,"one_slider",5,"Julia","stupid","intelligent","the most intelligent<br>person in the world","unintelligent","not unintelligent","person","neg_morphant","morphant","female","the most unintelligent<br>person in the world",0.5
12,4134,"one_slider",6,"Stephen","rude","polite","the most polite<br>person in the world","impolite","polite","person","positive","morphant","male","the most impolite<br>person in the world",0.74
12,4408,"one_slider",7,"Tom","flaky","reliable","the most reliable<br>person in the world","unreliable","reliable","person","positive","morphant","male","the most unreliable<br>person in the world",0.79
12,5150,"one_slider",8,"Monica","ugly","attractive","the most attractive<br>person in the world","unattractive","not unattractive","person","neg_morphant","morphant","female","the most unattractive<br>person in the world",0.59
12,2799,"one_slider",9,"Sophia","crazy","rational","the most rational<br>person in the world","irrational","not irrational","person","neg_morphant","morphant","female","the most irrational<br>person in the world",0.54
12,4512,"one_slider",10,"Melinda","wasteful","resourceful","the most resourceful<br>person in the world","unresourceful","unresourceful","person","morphant","morphant","female","the most unresourceful<br>person in the world",0.34
12,5310,"one_slider",11,"Claire","mean","friendly","the most friendly<br>person in the world","unfriendly","not friendly","person","neg_positive","morphant","female","the most unfriendly<br>person in the world",0.31
12,3575,"one_slider",12,"Daniel","fake","sincere","the most sincere<br>person in the world","insincere","not sincere","person","neg_positive","morphant","male","the most insincere<br>person in the world",0.24
13,17584,"one_slider",1,"Jennifer","stingy","generous","the most generous<br>person in the world","ungenerous","not generous","person","neg_positive","morphant","female","the most ungenerous<br>person in the world",0.46
13,5827,"one_slider",2,"Melinda","stupid","intelligent","the most intelligent<br>person in the world","unintelligent","unintelligent","person","morphant","morphant","female","the most unintelligent<br>person in the world",0.43
13,4771,"one_slider",3,"Kathleen","crazy","rational","the most rational<br>person in the world","irrational","rational","person","positive","morphant","female","the most irrational<br>person in the world",0.66
13,9631,"one_slider",4,"William","boring","interesting","the most interesting<br>person in the world","uninteresting","not uninteresting","person","neg_morphant","morphant","male","the most uninteresting<br>person in the world",0.57
13,7587,"one_slider",5,"Stephanie","bigoted","tolerant","the most tolerant<br>person in the world","intolerant","not tolerant","person","neg_positive","morphant","female","the most intolerant<br>person in the world",0.41
13,5509,"one_slider",6,"Veronica","cold","affectionate","the most affectionate<br>person in the world","unaffectionate","affectionate","person","positive","morphant","female","the most unaffectionate<br>person in the world",0.63
13,5997,"one_slider",7,"Greg","wasteful","resourceful","the most resourceful<br>person in the world","unresourceful","resourceful","person","positive","morphant","male","the most unresourceful<br>person in the world",0.65
13,4876,"one_slider",8,"John","flaky","reliable","the most reliable<br>person in the world","unreliable","not reliable","person","neg_positive","morphant","male","the most unreliable<br>person in the world",0.39
13,6341,"one_slider",9,"Eric","traitorous","patriotic","the most patriotic<br>person in the world","unpatriotic","unpatriotic","person","morphant","morphant","male","the most unpatriotic<br>person in the world",0.4
13,6156,"one_slider",10,"David","resentful","forgiving","the most forgiving<br>person in the world","unforgiving","unforgiving","person","morphant","morphant","male","the most unforgiving<br>person in the world",0.41
13,8971,"one_slider",11,"Kim","ignorant","educated","the most educated<br>person in the world","uneducated","not uneducated","person","neg_morphant","morphant","female","the most uneducated<br>person in the world",0.67
13,7200,"one_slider",12,"Tom","deceitful","honest","the most honest<br>person in the world","dishonest","not dishonest","person","neg_morphant","morphant","male","the most dishonest<br>person in the world",0.65
14,13734,"one_slider",1,"David","cold","affectionate","the most affectionate<br>person in the world","unaffectionate","not affectionate","person","neg_positive","morphant","male","the most unaffectionate<br>person in the world",0.33
14,5170,"one_slider",2,"Angela","wasteful","resourceful","the most resourceful<br>person in the world","unresourceful","not unresourceful","person","neg_morphant","morphant","female","the most unresourceful<br>person in the world",0.35
14,3232,"one_slider",3,"Greg","stupid","intelligent","the most intelligent<br>person in the world","unintelligent","unintelligent","person","morphant","morphant","male","the most unintelligent<br>person in the world",0.36
14,4592,"one_slider",4,"Maya","resentful","forgiving","the most forgiving<br>person in the world","unforgiving","not unforgiving","person","neg_morphant","morphant","female","the most unforgiving<br>person in the world",0.29
14,3155,"one_slider",5,"Melinda","stingy","generous","the most generous<br>person in the world","ungenerous","not ungenerous","person","neg_morphant","morphant","female","the most ungenerous<br>person in the world",0.36
14,6894,"one_slider",6,"Veronica","ugly","attractive","the most attractive<br>person in the world","unattractive","not attractive","person","neg_positive","morphant","female","the most unattractive<br>person in the world",0.48
14,5335,"one_slider",7,"Cameron","boring","interesting","the most interesting<br>person in the world","uninteresting","interesting","person","positive","morphant","male","the most uninteresting<br>person in the world",0.67
14,4438,"one_slider",8,"Lucas","flaky","reliable","the most reliable<br>person in the world","unreliable","not reliable","person","neg_positive","morphant","male","the most unreliable<br>person in the world",0.32
14,4859,"one_slider",9,"Michelle","lazy","ambitious","the most ambitious<br>person in the world","unambitious","ambitious","person","positive","morphant","female","the most unambitious<br>person in the world",0.68
14,6304,"one_slider",10,"Daniel","childish","mature","the most mature<br>person in the world","immature","immature","person","morphant","morphant","male","the most immature<br>person in the world",0.37
14,3667,"one_slider",11,"Alicia","traitorous","patriotic","the most patriotic<br>person in the world","unpatriotic","patriotic","person","positive","morphant","female","the most unpatriotic<br>person in the world",0.67
14,11951,"one_slider",12,"Claire","crazy","rational","the most rational<br>person in the world","irrational","irrational","person","morphant","morphant","female","the most irrational<br>person in the world",0.34
15,3742,"one_slider",1,"John","sad","happy","the most happy<br>person in the world","unhappy","happy","person","positive","morphant","male","the most unhappy<br>person in the world",0.67
15,4870,"one_slider",2,"Sophia","fake","sincere","the most sincere<br>person in the world","insincere","not insincere","person","neg_morphant","morphant","female","the most insincere<br>person in the world",0.68
15,5236,"one_slider",3,"Monica","crazy","rational","the most rational<br>person in the world","irrational","not rational","person","neg_positive","morphant","female","the most irrational<br>person in the world",0.24
15,4289,"one_slider",4,"Jennifer","bigoted","tolerant","the most tolerant<br>person in the world","intolerant","not intolerant","person","neg_morphant","morphant","female","the most intolerant<br>person in the world",0.58
15,2817,"one_slider",5,"Lee","mean","friendly","the most friendly<br>person in the world","unfriendly","friendly","person","positive","morphant","male","the most unfriendly<br>person in the world",0.62
15,5573,"one_slider",6,"Michelle","boring","interesting","the most interesting<br>person in the world","uninteresting","not interesting","person","neg_positive","morphant","female","the most uninteresting<br>person in the world",0.2
15,4632,"one_slider",7,"Stephen","lazy","ambitious","the most ambitious<br>person in the world","unambitious","not ambitious","person","neg_positive","morphant","male","the most unambitious<br>person in the world",0.31
15,2781,"one_slider",8,"Gabriel","ugly","attractive","the most attractive<br>person in the world","unattractive","not unattractive","person","neg_morphant","morphant","male","the most unattractive<br>person in the world",0.67
15,2887,"one_slider",9,"Cameron","wasteful","resourceful","the most resourceful<br>person in the world","unresourceful","unresourceful","person","morphant","morphant","male","the most unresourceful<br>person in the world",0.62
15,2539,"one_slider",10,"Daniel","flaky","reliable","the most reliable<br>person in the world","unreliable","unreliable","person","morphant","morphant","male","the most unreliable<br>person in the world",0.63
15,3571,"one_slider",11,"Maya","rude","polite","the most polite<br>person in the world","impolite","polite","person","positive","morphant","female","the most impolite<br>person in the world",0.64
15,3285,"one_slider",12,"Kathleen","ignorant","educated","the most educated<br>person in the world","uneducated","uneducated","person","morphant","morphant","female","the most uneducated<br>person in the world",0.33
16,10917,"one_slider",1,"Michelle","stupid","intelligent","the most intelligent<br>person in the world","unintelligent","not intelligent","person","neg_positive","morphant","female","the most unintelligent<br>person in the world",0.47
16,5381,"one_slider",2,"Kim","bigoted","tolerant","the most tolerant<br>person in the world","intolerant","not tolerant","person","neg_positive","morphant","female","the most intolerant<br>person in the world",0.41
16,5082,"one_slider",3,"Laura","ugly","attractive","the most attractive<br>person in the world","unattractive","not unattractive","person","neg_morphant","morphant","female","the most unattractive<br>person in the world",0.67
16,5491,"one_slider",4,"William","boring","interesting","the most interesting<br>person in the world","uninteresting","not uninteresting","person","neg_morphant","morphant","male","the most uninteresting<br>person in the world",0.57
16,4731,"one_slider",5,"Stephanie","wasteful","resourceful","the most resourceful<br>person in the world","unresourceful","not resourceful","person","neg_positive","morphant","female","the most unresourceful<br>person in the world",0.35
16,9532,"one_slider",6,"Tom","stingy","generous","the most generous<br>person in the world","ungenerous","not ungenerous","person","neg_morphant","morphant","male","the most ungenerous<br>person in the world",0.48
16,5792,"one_slider",7,"Maya","fake","sincere","the most sincere<br>person in the world","insincere","insincere","person","morphant","morphant","female","the most insincere<br>person in the world",0.08
16,4041,"one_slider",8,"Julia","flaky","reliable","the most reliable<br>person in the world","unreliable","unreliable","person","morphant","morphant","female","the most unreliable<br>person in the world",0.09
16,3471,"one_slider",9,"Sophia","crazy","rational","the most rational<br>person in the world","irrational","rational","person","positive","morphant","female","the most irrational<br>person in the world",0.75
16,3771,"one_slider",10,"Gabriel","deceitful","honest","the most honest<br>person in the world","dishonest","honest","person","positive","morphant","male","the most dishonest<br>person in the world",0.89
16,3911,"one_slider",11,"Michael","traitorous","patriotic","the most patriotic<br>person in the world","unpatriotic","unpatriotic","person","morphant","morphant","male","the most unpatriotic<br>person in the world",0.15
16,4490,"one_slider",12,"David","childish","mature","the most mature<br>person in the world","immature","mature","person","positive","morphant","male","the most immature<br>person in the world",0.6
17,19745,"one_slider",1,"Melinda","rude","polite","the most polite<br>person in the world","impolite","impolite","person","morphant","morphant","female","the most impolite<br>person in the world",0.45
17,28316,"one_slider",2,"Angela","childish","mature","the most mature<br>person in the world","immature","mature","person","positive","morphant","female","the most immature<br>person in the world",0.52
17,18871,"one_slider",3,"Claire","lazy","ambitious","the most ambitious<br>person in the world","unambitious","not ambitious","person","neg_positive","morphant","female","the most unambitious<br>person in the world",0.29
17,15837,"one_slider",4,"Kathleen","cold","affectionate","the most affectionate<br>person in the world","unaffectionate","not unaffectionate","person","neg_morphant","morphant","female","the most unaffectionate<br>person in the world",0.49
17,13637,"one_slider",5,"David","cruel","kind","the most kind<br>person in the world","unkind","unkind","person","morphant","morphant","male","the most unkind<br>person in the world",0.41
17,5129,"one_slider",6,"John","ignorant","educated","the most educated<br>person in the world","uneducated","uneducated","person","morphant","morphant","male","the most uneducated<br>person in the world",0.32
17,7795,"one_slider",7,"Lucas","traitorous","patriotic","the most patriotic<br>person in the world","unpatriotic","patriotic","person","positive","morphant","male","the most unpatriotic<br>person in the world",0.49
17,9371,"one_slider",8,"Laura","resentful","forgiving","the most forgiving<br>person in the world","unforgiving","not forgiving","person","neg_positive","morphant","female","the most unforgiving<br>person in the world",0.28
17,15087,"one_slider",9,"Veronica","bigoted","tolerant","the most tolerant<br>person in the world","intolerant","not intolerant","person","neg_morphant","morphant","female","the most intolerant<br>person in the world",0.49
17,4472,"one_slider",10,"Sophia","sad","happy","the most happy<br>person in the world","unhappy","not happy","person","neg_positive","morphant","female","the most unhappy<br>person in the world",0.39
17,6667,"one_slider",11,"Michelle","stingy","generous","the most generous<br>person in the world","ungenerous","generous","person","positive","morphant","female","the most ungenerous<br>person in the world",0.58
17,8265,"one_slider",12,"Kim","stupid","intelligent","the most intelligent<br>person in the world","unintelligent","not unintelligent","person","neg_morphant","morphant","female","the most unintelligent<br>person in the world",0.45
18,17324,"one_slider",1,"Cameron","rude","polite","the most polite<br>person in the world","impolite","impolite","person","morphant","morphant","male","the most impolite<br>person in the world",0.32
18,5367,"one_slider",2,"Alexander","resentful","forgiving","the most forgiving<br>person in the world","unforgiving","not forgiving","person","neg_positive","morphant","male","the most unforgiving<br>person in the world",0.3
18,3487,"one_slider",3,"Stephanie","childish","mature","the most mature<br>person in the world","immature","not mature","person","neg_positive","morphant","female","the most immature<br>person in the world",0.33
18,3128,"one_slider",4,"Angela","ignorant","educated","the most educated<br>person in the world","uneducated","uneducated","person","morphant","morphant","female","the most uneducated<br>person in the world",0.32
18,4806,"one_slider",5,"Kathleen","stupid","intelligent","the most intelligent<br>person in the world","unintelligent","not unintelligent","person","neg_morphant","morphant","female","the most unintelligent<br>person in the world",0.65
18,3003,"one_slider",6,"William","flaky","reliable","the most reliable<br>person in the world","unreliable","reliable","person","positive","morphant","male","the most unreliable<br>person in the world",0.7
18,11965,"one_slider",7,"John","fake","sincere","the most sincere<br>person in the world","insincere","not insincere","person","neg_morphant","morphant","male","the most insincere<br>person in the world",0.63
18,3128,"one_slider",8,"Julia","mean","friendly","the most friendly<br>person in the world","unfriendly","friendly","person","positive","morphant","female","the most unfriendly<br>person in the world",0.66
18,3291,"one_slider",9,"Jennifer","cruel","kind","the most kind<br>person in the world","unkind","not unkind","person","neg_morphant","morphant","female","the most unkind<br>person in the world",0.64
18,7053,"one_slider",10,"Melinda","lazy","ambitious","the most ambitious<br>person in the world","unambitious","not ambitious","person","neg_positive","morphant","female","the most unambitious<br>person in the world",0.25
18,4212,"one_slider",11,"Sophia","stingy","generous","the most generous<br>person in the world","ungenerous","ungenerous","person","morphant","morphant","female","the most ungenerous<br>person in the world",0.35
18,2324,"one_slider",12,"Michael","deceitful","honest","the most honest<br>person in the world","dishonest","honest","person","positive","morphant","male","the most dishonest<br>person in the world",0.72
19,21391,"one_slider",1,"Tom","stingy","generous","the most generous<br>person in the world","ungenerous","not ungenerous","person","neg_morphant","morphant","male","the most ungenerous<br>person in the world",0.38
19,6225,"one_slider",2,"Claire","childish","mature","the most mature<br>person in the world","immature","immature","person","morphant","morphant","female","the most immature<br>person in the world",0.23
19,11791,"one_slider",3,"Kim","lazy","ambitious","the most ambitious<br>person in the world","unambitious","not unambitious","person","neg_morphant","morphant","female","the most unambitious<br>person in the world",0.69
19,3935,"one_slider",4,"Angela","cruel","kind","the most kind<br>person in the world","unkind","not kind","person","neg_positive","morphant","female","the most unkind<br>person in the world",0.27
19,4700,"one_slider",5,"David","boring","interesting","the most interesting<br>person in the world","uninteresting","not uninteresting","person","neg_morphant","morphant","male","the most uninteresting<br>person in the world",0.64
19,4097,"one_slider",6,"Jennifer","sad","happy","the most happy<br>person in the world","unhappy","happy","person","positive","morphant","female","the most unhappy<br>person in the world",0.8
19,3653,"one_slider",7,"Julia","resentful","forgiving","the most forgiving<br>person in the world","unforgiving","unforgiving","person","morphant","morphant","female","the most unforgiving<br>person in the world",0.21
19,5408,"one_slider",8,"Kathleen","wasteful","resourceful","the most resourceful<br>person in the world","unresourceful","not resourceful","person","neg_positive","morphant","female","the most unresourceful<br>person in the world",0.17
19,5184,"one_slider",9,"Daniel","ignorant","educated","the most educated<br>person in the world","uneducated","educated","person","positive","morphant","male","the most uneducated<br>person in the world",0.78
19,3661,"one_slider",10,"Michelle","crazy","rational","the most rational<br>person in the world","irrational","irrational","person","morphant","morphant","female","the most irrational<br>person in the world",0.21
19,3754,"one_slider",11,"William","mean","friendly","the most friendly<br>person in the world","unfriendly","friendly","person","positive","morphant","male","the most unfriendly<br>person in the world",0.76
19,5921,"one_slider",12,"Alexander","cold","affectionate","the most affectionate<br>person in the world","unaffectionate","not affectionate","person","neg_positive","morphant","male","the most unaffectionate<br>person in the world",0.25
20,11867,"one_slider",1,"Stephen","childish","mature","the most mature<br>person in the world","immature","not mature","person","neg_positive","morphant","male","the most immature<br>person in the world",0.51
20,5579,"one_slider",2,"Tom","lazy","ambitious","the most ambitious<br>person in the world","unambitious","ambitious","person","positive","morphant","male","the most unambitious<br>person in the world",0.68
20,7032,"one_slider",3,"Claire","fake","sincere","the most sincere<br>person in the world","insincere","not sincere","person","neg_positive","morphant","female","the most insincere<br>person in the world",0.31
20,5355,"one_slider",4,"Cameron","cruel","kind","the most kind<br>person in the world","unkind","kind","person","positive","morphant","male","the most unkind<br>person in the world",0.79
20,5445,"one_slider",5,"Kim","resentful","forgiving","the most forgiving<br>person in the world","unforgiving","unforgiving","person","morphant","morphant","female","the most unforgiving<br>person in the world",0.32
20,3431,"one_slider",6,"Anthony","rude","polite","the most polite<br>person in the world","impolite","polite","person","positive","morphant","male","the most impolite<br>person in the world",0.83
20,6929,"one_slider",7,"Kathleen","stupid","intelligent","the most intelligent<br>person in the world","unintelligent","not intelligent","person","neg_positive","morphant","female","the most unintelligent<br>person in the world",0.42
20,3971,"one_slider",8,"Lee","sad","happy","the most happy<br>person in the world","unhappy","unhappy","person","morphant","morphant","male","the most unhappy<br>person in the world",0.27
20,5805,"one_slider",9,"Julia","wasteful","resourceful","the most resourceful<br>person in the world","unresourceful","not unresourceful","person","neg_morphant","morphant","female","the most unresourceful<br>person in the world",0.71
20,4680,"one_slider",10,"Veronica","crazy","rational","the most rational<br>person in the world","irrational","irrational","person","morphant","morphant","female","the most irrational<br>person in the world",0.19
20,5231,"one_slider",11,"Lucas","ugly","attractive","the most attractive<br>person in the world","unattractive","not unattractive","person","neg_morphant","morphant","male","the most unattractive<br>person in the world",0.57
20,5648,"one_slider",12,"Sophia","bigoted","tolerant","the most tolerant<br>person in the world","intolerant","not intolerant","person","neg_morphant","morphant","female","the most intolerant<br>person in the world",0.65
21,8635,"one_slider",1,"Jennifer","ignorant","educated","the most educated<br>person in the world","uneducated","uneducated","person","morphant","morphant","female","the most uneducated<br>person in the world",0.41
21,4033,"one_slider",2,"Stephen","lazy","ambitious","the most ambitious<br>person in the world","unambitious","ambitious","person","positive","morphant","male","the most unambitious<br>person in the world",0.66
21,3329,"one_slider",3,"Claire","mean","friendly","the most friendly<br>person in the world","unfriendly","unfriendly","person","morphant","morphant","female","the most unfriendly<br>person in the world",0.36
21,4123,"one_slider",4,"Michelle","fake","sincere","the most sincere<br>person in the world","insincere","not sincere","person","neg_positive","morphant","female","the most insincere<br>person in the world",0.45
21,2619,"one_slider",5,"Angela","traitorous","patriotic","the most patriotic<br>person in the world","unpatriotic","not patriotic","person","neg_positive","morphant","female","the most unpatriotic<br>person in the world",0.35
21,2855,"one_slider",6,"Lucas","childish","mature","the most mature<br>person in the world","immature","mature","person","positive","morphant","male","the most immature<br>person in the world",0.63
21,4354,"one_slider",7,"Sophia","sad","happy","the most happy<br>person in the world","unhappy","not unhappy","person","neg_morphant","morphant","female","the most unhappy<br>person in the world",0.43
21,8176,"one_slider",8,"Cameron","ugly","attractive","the most attractive<br>person in the world","unattractive","attractive","person","positive","morphant","male","the most unattractive<br>person in the world",0.61
21,3760,"one_slider",9,"Greg","deceitful","honest","the most honest<br>person in the world","dishonest","not dishonest","person","neg_morphant","morphant","male","the most dishonest<br>person in the world",0.56
21,6774,"one_slider",10,"Monica","resentful","forgiving","the most forgiving<br>person in the world","unforgiving","unforgiving","person","morphant","morphant","female","the most unforgiving<br>person in the world",0.49
21,3985,"one_slider",11,"Michael","boring","interesting","the most interesting<br>person in the world","uninteresting","not uninteresting","person","neg_morphant","morphant","male","the most uninteresting<br>person in the world",0.55
21,5264,"one_slider",12,"Anthony","wasteful","resourceful","the most resourceful<br>person in the world","unresourceful","not resourceful","person","neg_positive","morphant","male","the most unresourceful<br>person in the world",0.47
22,17943,"one_slider",1,"Stephen","mean","friendly","the most friendly<br>person in the world","unfriendly","not friendly","person","neg_positive","morphant","male","the most unfriendly<br>person in the world",0.47
22,10485,"one_slider",2,"Greg","bigoted","tolerant","the most tolerant<br>person in the world","intolerant","tolerant","person","positive","morphant","male","the most intolerant<br>person in the world",0.58
22,6970,"one_slider",3,"Julia","resentful","forgiving","the most forgiving<br>person in the world","unforgiving","unforgiving","person","morphant","morphant","female","the most unforgiving<br>person in the world",0.41
22,5976,"one_slider",4,"Daniel","cruel","kind","the most kind<br>person in the world","unkind","unkind","person","morphant","morphant","male","the most unkind<br>person in the world",0.42
22,10918,"one_slider",5,"Lucas","crazy","rational","the most rational<br>person in the world","irrational","not irrational","person","neg_morphant","morphant","male","the most irrational<br>person in the world",0.61
22,7878,"one_slider",6,"Maya","deceitful","honest","the most honest<br>person in the world","dishonest","not dishonest","person","neg_morphant","morphant","female","the most dishonest<br>person in the world",0.61
22,6135,"one_slider",7,"Michael","flaky","reliable","the most reliable<br>person in the world","unreliable","unreliable","person","morphant","morphant","male","the most unreliable<br>person in the world",0.39
22,9520,"one_slider",8,"Melinda","ignorant","educated","the most educated<br>person in the world","uneducated","educated","person","positive","morphant","female","the most uneducated<br>person in the world",0.61
22,3852,"one_slider",9,"Gabriel","sad","happy","the most happy<br>person in the world","unhappy","happy","person","positive","morphant","male","the most unhappy<br>person in the world",0.57
22,4724,"one_slider",10,"Angela","stupid","intelligent","the most intelligent<br>person in the world","unintelligent","not unintelligent","person","neg_morphant","morphant","female","the most unintelligent<br>person in the world",0.4
22,8276,"one_slider",11,"Kim","wasteful","resourceful","the most resourceful<br>person in the world","unresourceful","not resourceful","person","neg_positive","morphant","female","the most unresourceful<br>person in the world",0.39
22,11913,"one_slider",12,"Veronica","stingy","generous","the most generous<br>person in the world","ungenerous","not generous","person","neg_positive","morphant","female","the most ungenerous<br>person in the world",0.41
23,9113,"one_slider",1,"Jennifer","bigoted","tolerant","the most tolerant<br>person in the world","intolerant","intolerant","person","morphant","morphant","female","the most intolerant<br>person in the world",0.37
23,3827,"one_slider",2,"Michelle","traitorous","patriotic","the most patriotic<br>person in the world","unpatriotic","patriotic","person","positive","morphant","female","the most unpatriotic<br>person in the world",0.72
23,4874,"one_slider",3,"Claire","cold","affectionate","the most affectionate<br>person in the world","unaffectionate","not unaffectionate","person","neg_morphant","morphant","female","the most unaffectionate<br>person in the world",0.51
23,4077,"one_slider",4,"Alexander","resentful","forgiving","the most forgiving<br>person in the world","unforgiving","not forgiving","person","neg_positive","morphant","male","the most unforgiving<br>person in the world",0.28
23,2823,"one_slider",5,"Gabriel","sad","happy","the most happy<br>person in the world","unhappy","happy","person","positive","morphant","male","the most unhappy<br>person in the world",0.74
23,2730,"one_slider",6,"Daniel","ugly","attractive","the most attractive<br>person in the world","unattractive","not attractive","person","neg_positive","morphant","male","the most unattractive<br>person in the world",0.31
23,2863,"one_slider",7,"Maya","deceitful","honest","the most honest<br>person in the world","dishonest","dishonest","person","morphant","morphant","female","the most dishonest<br>person in the world",0.29
23,2346,"one_slider",8,"Monica","flaky","reliable","the most reliable<br>person in the world","unreliable","reliable","person","positive","morphant","female","the most unreliable<br>person in the world",0.76
23,3790,"one_slider",9,"Lucas","fake","sincere","the most sincere<br>person in the world","insincere","not insincere","person","neg_morphant","morphant","male","the most insincere<br>person in the world",0.28
23,5983,"one_slider",10,"Veronica","childish","mature","the most mature<br>person in the world","immature","immature","person","morphant","morphant","female","the most immature<br>person in the world",0.33
23,4386,"one_slider",11,"Kathleen","ignorant","educated","the most educated<br>person in the world","uneducated","not uneducated","person","neg_morphant","morphant","female","the most uneducated<br>person in the world",0.73
23,3055,"one_slider",12,"Anthony","crazy","rational","the most rational<br>person in the world","irrational","not rational","person","neg_positive","morphant","male","the most irrational<br>person in the world",0.27
24,18871,"one_slider",1,"Lucas","sad","happy","the most happy<br>person in the world","unhappy","not happy","person","neg_positive","morphant","male","the most unhappy<br>person in the world",0.21
24,5844,"one_slider",2,"Eric","cruel","kind","the most kind<br>person in the world","unkind","kind","person","positive","morphant","male","the most unkind<br>person in the world",0.83
24,5857,"one_slider",3,"Jennifer","deceitful","honest","the most honest<br>person in the world","dishonest","not honest","person","neg_positive","morphant","female","the most dishonest<br>person in the world",0.11
24,5722,"one_slider",4,"Laura","stupid","intelligent","the most intelligent<br>person in the world","unintelligent","intelligent","person","positive","morphant","female","the most unintelligent<br>person in the world",0.82
24,6599,"one_slider",5,"Lee","rude","polite","the most polite<br>person in the world","impolite","not impolite","person","neg_morphant","morphant","male","the most impolite<br>person in the world",0.69
24,8681,"one_slider",6,"Sophia","resentful","forgiving","the most forgiving<br>person in the world","unforgiving","not forgiving","person","neg_positive","morphant","female","the most unforgiving<br>person in the world",0.11
24,5860,"one_slider",7,"John","cold","affectionate","the most affectionate<br>person in the world","unaffectionate","affectionate","person","positive","morphant","male","the most unaffectionate<br>person in the world",0.8
24,9795,"one_slider",8,"Maya","flaky","reliable","the most reliable<br>person in the world","unreliable","unreliable","person","morphant","morphant","female","the most unreliable<br>person in the world",0.05
24,8158,"one_slider",9,"Kim","lazy","ambitious","the most ambitious<br>person in the world","unambitious","unambitious","person","morphant","morphant","female","the most unambitious<br>person in the world",0.07
24,5491,"one_slider",10,"Michelle","wasteful","resourceful","the most resourceful<br>person in the world","unresourceful","unresourceful","person","morphant","morphant","female","the most unresourceful<br>person in the world",0.09
24,9179,"one_slider",11,"Kathleen","crazy","rational","the most rational<br>person in the world","irrational","not irrational","person","neg_morphant","morphant","female","the most irrational<br>person in the world",0.71
24,6892,"one_slider",12,"Stephanie","boring","interesting","the most interesting<br>person in the world","uninteresting","not uninteresting","person","neg_morphant","morphant","female","the most uninteresting<br>person in the world",0.71
25,11958,"one_slider",1,"Melinda","lazy","ambitious","the most ambitious<br>person in the world","unambitious","not ambitious","person","neg_positive","morphant","female","the most unambitious<br>person in the world",0.04
25,16270,"one_slider",2,"Maya","boring","interesting","the most interesting<br>person in the world","uninteresting","uninteresting","person","morphant","morphant","female","the most uninteresting<br>person in the world",0.08
25,9007,"one_slider",3,"Cameron","flaky","reliable","the most reliable<br>person in the world","unreliable","not reliable","person","neg_positive","morphant","male","the most unreliable<br>person in the world",0.06
25,6600,"one_slider",4,"Michelle","stingy","generous","the most generous<br>person in the world","ungenerous","not generous","person","neg_positive","morphant","female","the most ungenerous<br>person in the world",0.9
25,5201,"one_slider",5,"Jennifer","sad","happy","the most happy<br>person in the world","unhappy","unhappy","person","morphant","morphant","female","the most unhappy<br>person in the world",0.11
25,6586,"one_slider",6,"David","bigoted","tolerant","the most tolerant<br>person in the world","intolerant","tolerant","person","positive","morphant","male","the most intolerant<br>person in the world",0.08
25,40542,"one_slider",7,"Tom","stupid","intelligent","the most intelligent<br>person in the world","unintelligent","not unintelligent","person","neg_morphant","morphant","male","the most unintelligent<br>person in the world",0.79
25,6829,"one_slider",8,"Claire","traitorous","patriotic","the most patriotic<br>person in the world","unpatriotic","unpatriotic","person","morphant","morphant","female","the most unpatriotic<br>person in the world",0.1
25,24389,"one_slider",9,"Angela","fake","sincere","the most sincere<br>person in the world","insincere","not insincere","person","neg_morphant","morphant","female","the most insincere<br>person in the world",0.81
25,8151,"one_slider",10,"Greg","cold","affectionate","the most affectionate<br>person in the world","unaffectionate","affectionate","person","positive","morphant","male","the most unaffectionate<br>person in the world",0.83
25,6908,"one_slider",11,"Anthony","crazy","rational","the most rational<br>person in the world","irrational","not irrational","person","neg_morphant","morphant","male","the most irrational<br>person in the world",0.86
25,11509,"one_slider",12,"Gabriel","childish","mature","the most mature<br>person in the world","immature","mature","person","positive","morphant","male","the most immature<br>person in the world",0.84
26,13452,"one_slider",1,"Kathleen","cruel","kind","the most kind<br>person in the world","unkind","unkind","person","morphant","morphant","female","the most unkind<br>person in the world",0.3
26,19799,"one_slider",2,"Gabriel","cold","affectionate","the most affectionate<br>person in the world","unaffectionate","not unaffectionate","person","neg_morphant","morphant","male","the most unaffectionate<br>person in the world",0.74
26,9718,"one_slider",3,"Laura","rude","polite","the most polite<br>person in the world","impolite","impolite","person","morphant","morphant","female","the most impolite<br>person in the world",0.49
26,8812,"one_slider",4,"Lee","sad","happy","the most happy<br>person in the world","unhappy","not unhappy","person","neg_morphant","morphant","male","the most unhappy<br>person in the world",0.77
26,6402,"one_slider",5,"Jennifer","resentful","forgiving","the most forgiving<br>person in the world","unforgiving","forgiving","person","positive","morphant","female","the most unforgiving<br>person in the world",0.81
26,6472,"one_slider",6,"Cameron","wasteful","resourceful","the most resourceful<br>person in the world","unresourceful","unresourceful","person","morphant","morphant","male","the most unresourceful<br>person in the world",0.48
26,40540,"one_slider",7,"David","fake","sincere","the most sincere<br>person in the world","insincere","sincere","person","positive","morphant","male","the most insincere<br>person in the world",0.77
26,7431,"one_slider",8,"Eric","boring","interesting","the most interesting<br>person in the world","uninteresting","not interesting","person","neg_positive","morphant","male","the most uninteresting<br>person in the world",0.49
26,8819,"one_slider",9,"Veronica","crazy","rational","the most rational<br>person in the world","irrational","rational","person","positive","morphant","female","the most irrational<br>person in the world",0.68
26,3091,"one_slider",10,"Stephanie","stupid","intelligent","the most intelligent<br>person in the world","unintelligent","not intelligent","person","neg_positive","morphant","female","the most unintelligent<br>person in the world",0.46
26,10065,"one_slider",11,"Maya","childish","mature","the most mature<br>person in the world","immature","not mature","person","neg_positive","morphant","female","the most immature<br>person in the world",0.32
26,4246,"one_slider",12,"Julia","ugly","attractive","the most attractive<br>person in the world","unattractive","not unattractive","person","neg_morphant","morphant","female","the most unattractive<br>person in the world",0.83
27,11529,"one_slider",1,"Monica","fake","sincere","the most sincere<br>person in the world","insincere","not sincere","person","neg_positive","morphant","female","the most insincere<br>person in the world",0.28
27,4952,"one_slider",2,"Alicia","bigoted","tolerant","the most tolerant<br>person in the world","intolerant","not tolerant","person","neg_positive","morphant","female","the most intolerant<br>person in the world",0.37
27,3856,"one_slider",3,"Claire","lazy","ambitious","the most ambitious<br>person in the world","unambitious","not ambitious","person","neg_positive","morphant","female","the most unambitious<br>person in the world",0.28
27,3360,"one_slider",4,"John","mean","friendly","the most friendly<br>person in the world","unfriendly","unfriendly","person","morphant","morphant","male","the most unfriendly<br>person in the world",0.26
27,2300,"one_slider",5,"Daniel","ugly","attractive","the most attractive<br>person in the world","unattractive","unattractive","person","morphant","morphant","male","the most unattractive<br>person in the world",0.26
27,4282,"one_slider",6,"Cameron","sad","happy","the most happy<br>person in the world","unhappy","not unhappy","person","neg_morphant","morphant","male","the most unhappy<br>person in the world",0.58
27,2491,"one_slider",7,"Stephanie","stingy","generous","the most generous<br>person in the world","ungenerous","not ungenerous","person","neg_morphant","morphant","female","the most ungenerous<br>person in the world",0.61
27,3930,"one_slider",8,"Lucas","stupid","intelligent","the most intelligent<br>person in the world","unintelligent","intelligent","person","positive","morphant","male","the most unintelligent<br>person in the world",0.72
27,1966,"one_slider",9,"Michael","ignorant","educated","the most educated<br>person in the world","uneducated","educated","person","positive","morphant","male","the most uneducated<br>person in the world",0.7
27,4036,"one_slider",10,"Michelle","wasteful","resourceful","the most resourceful<br>person in the world","unresourceful","unresourceful","person","morphant","morphant","female","the most unresourceful<br>person in the world",0.25
27,4531,"one_slider",11,"Veronica","cruel","kind","the most kind<br>person in the world","unkind","not unkind","person","neg_morphant","morphant","female","the most unkind<br>person in the world",0.63
27,3250,"one_slider",12,"Jennifer","flaky","reliable","the most reliable<br>person in the world","unreliable","reliable","person","positive","morphant","female","the most unreliable<br>person in the world",0.76
28,10108,"one_slider",1,"Sophia","stupid","intelligent","the most intelligent<br>person in the world","unintelligent","unintelligent","person","morphant","morphant","female","the most unintelligent<br>person in the world",0.41
28,9563,"one_slider",2,"Daniel","cold","affectionate","the most affectionate<br>person in the world","unaffectionate","not unaffectionate","person","neg_morphant","morphant","male","the most unaffectionate<br>person in the world",0.3
28,4833,"one_slider",3,"Jennifer","stingy","generous","the most generous<br>person in the world","ungenerous","not generous","person","neg_positive","morphant","female","the most ungenerous<br>person in the world",0.36
28,2405,"one_slider",4,"Michelle","fake","sincere","the most sincere<br>person in the world","insincere","sincere","person","positive","morphant","female","the most insincere<br>person in the world",0.66
28,3755,"one_slider",5,"John","crazy","rational","the most rational<br>person in the world","irrational","not rational","person","neg_positive","morphant","male","the most irrational<br>person in the world",0.4
28,2880,"one_slider",6,"Julia","mean","friendly","the most friendly<br>person in the world","unfriendly","unfriendly","person","morphant","morphant","female","the most unfriendly<br>person in the world",0.38
28,5568,"one_slider",7,"Laura","rude","polite","the most polite<br>person in the world","impolite","not impolite","person","neg_morphant","morphant","female","the most impolite<br>person in the world",0.6
28,4479,"one_slider",8,"Monica","resentful","forgiving","the most forgiving<br>person in the world","unforgiving","not forgiving","person","neg_positive","morphant","female","the most unforgiving<br>person in the world",0.33
28,6243,"one_slider",9,"David","traitorous","patriotic","the most patriotic<br>person in the world","unpatriotic","not unpatriotic","person","neg_morphant","morphant","male","the most unpatriotic<br>person in the world",0.6
28,3628,"one_slider",10,"Michael","cruel","kind","the most kind<br>person in the world","unkind","kind","person","positive","morphant","male","the most unkind<br>person in the world",0.69
28,4405,"one_slider",11,"Melinda","ignorant","educated","the most educated<br>person in the world","uneducated","uneducated","person","morphant","morphant","female","the most uneducated<br>person in the world",0.35
28,3771,"one_slider",12,"Maya","sad","happy","the most happy<br>person in the world","unhappy","happy","person","positive","morphant","female","the most unhappy<br>person in the world",0.62
29,11284,"one_slider",1,"William","fake","sincere","the most sincere<br>person in the world","insincere","not insincere","person","neg_morphant","morphant","male","the most insincere<br>person in the world",0.63
29,10647,"one_slider",2,"Stephen","flaky","reliable","the most reliable<br>person in the world","unreliable","unreliable","person","morphant","morphant","male","the most unreliable<br>person in the world",0.11
29,5231,"one_slider",3,"Angela","ugly","attractive","the most attractive<br>person in the world","unattractive","not unattractive","person","neg_morphant","morphant","female","the most unattractive<br>person in the world",0.65
29,7006,"one_slider",4,"Anthony","deceitful","honest","the most honest<br>person in the world","dishonest","honest","person","positive","morphant","male","the most dishonest<br>person in the world",0.83
29,5168,"one_slider",5,"Jennifer","cruel","kind","the most kind<br>person in the world","unkind","not kind","person","neg_positive","morphant","female","the most unkind<br>person in the world",0.26
29,4879,"one_slider",6,"David","crazy","rational","the most rational<br>person in the world","irrational","irrational","person","morphant","morphant","male","the most irrational<br>person in the world",0.28
29,5127,"one_slider",7,"Alexander","ignorant","educated","the most educated<br>person in the world","uneducated","educated","person","positive","morphant","male","the most uneducated<br>person in the world",0.78
29,4670,"one_slider",8,"Michelle","bigoted","tolerant","the most tolerant<br>person in the world","intolerant","not intolerant","person","neg_morphant","morphant","female","the most intolerant<br>person in the world",0.73
29,4519,"one_slider",9,"Kim","stupid","intelligent","the most intelligent<br>person in the world","unintelligent","unintelligent","person","morphant","morphant","female","the most unintelligent<br>person in the world",0.31
29,5063,"one_slider",10,"Sophia","childish","mature","the most mature<br>person in the world","immature","not mature","person","neg_positive","morphant","female","the most immature<br>person in the world",0.2
29,4360,"one_slider",11,"Maya","stingy","generous","the most generous<br>person in the world","ungenerous","not generous","person","neg_positive","morphant","female","the most ungenerous<br>person in the world",0.24
29,3712,"one_slider",12,"Daniel","traitorous","patriotic","the most patriotic<br>person in the world","unpatriotic","patriotic","person","positive","morphant","male","the most unpatriotic<br>person in the world",0.75
30,19204,"one_slider",1,"Anthony","cold","affectionate","the most affectionate<br>person in the world","unaffectionate","affectionate","person","positive","morphant","male","the most unaffectionate<br>person in the world",0.75
30,8200,"one_slider",2,"Veronica","rude","polite","the most polite<br>person in the world","impolite","not polite","person","neg_positive","morphant","female","the most impolite<br>person in the world",0.21
30,10894,"one_slider",3,"Gabriel","stingy","generous","the most generous<br>person in the world","ungenerous","ungenerous","person","morphant","morphant","male","the most ungenerous<br>person in the world",0.14
30,8216,"one_slider",4,"Jennifer","lazy","ambitious","the most ambitious<br>person in the world","unambitious","unambitious","person","morphant","morphant","female","the most unambitious<br>person in the world",0.36
30,9195,"one_slider",5,"Maya","stupid","intelligent","the most intelligent<br>person in the world","unintelligent","intelligent","person","positive","morphant","female","the most unintelligent<br>person in the world",0.8
30,10071,"one_slider",6,"Julia","flaky","reliable","the most reliable<br>person in the world","unreliable","not reliable","person","neg_positive","morphant","female","the most unreliable<br>person in the world",0.16
30,16178,"one_slider",7,"David","resentful","forgiving","the most forgiving<br>person in the world","unforgiving","not unforgiving","person","neg_morphant","morphant","male","the most unforgiving<br>person in the world",0.76
30,12267,"one_slider",8,"Stephanie","ugly","attractive","the most attractive<br>person in the world","unattractive","unattractive","person","morphant","morphant","female","the most unattractive<br>person in the world",0.37
30,16442,"one_slider",9,"Greg","crazy","rational","the most rational<br>person in the world","irrational","not irrational","person","neg_morphant","morphant","male","the most irrational<br>person in the world",0.65
30,6252,"one_slider",10,"Daniel","deceitful","honest","the most honest<br>person in the world","dishonest","not honest","person","neg_positive","morphant","male","the most dishonest<br>person in the world",0.2
30,11166,"one_slider",11,"Lee","fake","sincere","the most sincere<br>person in the world","insincere","not insincere","person","neg_morphant","morphant","male","the most insincere<br>person in the world",0.75
30,9430,"one_slider",12,"Kim","childish","mature","the most mature<br>person in the world","immature","mature","person","positive","morphant","female","the most immature<br>person in the world",0.66
31,4590,"one_slider",1,"Claire","sad","happy","the most happy<br>person in the world","unhappy","happy","person","positive","morphant","female","the most unhappy<br>person in the world",0.84
31,5351,"one_slider",2,"Melinda","cold","affectionate","the most affectionate<br>person in the world","unaffectionate","unaffectionate","person","morphant","morphant","female","the most unaffectionate<br>person in the world",0.12
31,10504,"one_slider",3,"Laura","traitorous","patriotic","the most patriotic<br>person in the world","unpatriotic","not patriotic","person","neg_positive","morphant","female","the most unpatriotic<br>person in the world",0.25
31,9720,"one_slider",4,"Anthony","mean","friendly","the most friendly<br>person in the world","unfriendly","friendly","person","positive","morphant","male","the most unfriendly<br>person in the world",0.77
31,112638,"one_slider",5,"Michael","lazy","ambitious","the most ambitious<br>person in the world","unambitious","unambitious","person","morphant","morphant","male","the most unambitious<br>person in the world",0.25
31,12287,"one_slider",6,"Lucas","stingy","generous","the most generous<br>person in the world","ungenerous","not ungenerous","person","neg_morphant","morphant","male","the most ungenerous<br>person in the world",0.74
31,8401,"one_slider",7,"Stephanie","childish","mature","the most mature<br>person in the world","immature","mature","person","positive","morphant","female","the most immature<br>person in the world",0.86
31,4951,"one_slider",8,"Julia","cruel","kind","the most kind<br>person in the world","unkind","not unkind","person","neg_morphant","morphant","female","the most unkind<br>person in the world",0.85
31,7896,"one_slider",9,"Alexander","wasteful","resourceful","the most resourceful<br>person in the world","unresourceful","not resourceful","person","neg_positive","morphant","male","the most unresourceful<br>person in the world",0.19
31,12423,"one_slider",10,"Kim","ignorant","educated","the most educated<br>person in the world","uneducated","uneducated","person","morphant","morphant","female","the most uneducated<br>person in the world",0.24
31,9208,"one_slider",11,"Maya","flaky","reliable","the most reliable<br>person in the world","unreliable","not unreliable","person","neg_morphant","morphant","female","the most unreliable<br>person in the world",0.81
31,9495,"one_slider",12,"Tom","ugly","attractive","the most attractive<br>person in the world","unattractive","not attractive","person","neg_positive","morphant","male","the most unattractive<br>person in the world",0.11
32,26466,"one_slider",1,"David","crazy","rational","the most rational<br>person in the world","irrational","not rational","person","neg_positive","morphant","male","the most irrational<br>person in the world",0.51
32,7808,"one_slider",2,"Lucas","stingy","generous","the most generous<br>person in the world","ungenerous","generous","person","positive","morphant","male","the most ungenerous<br>person in the world",0.81
32,13156,"one_slider",3,"Daniel","cold","affectionate","the most affectionate<br>person in the world","unaffectionate","unaffectionate","person","morphant","morphant","male","the most unaffectionate<br>person in the world",0.2
32,7085,"one_slider",4,"Stephen","traitorous","patriotic","the most patriotic<br>person in the world","unpatriotic","patriotic","person","positive","morphant","male","the most unpatriotic<br>person in the world",0.76
32,7011,"one_slider",5,"Sophia","boring","interesting","the most interesting<br>person in the world","uninteresting","not interesting","person","neg_positive","morphant","female","the most uninteresting<br>person in the world",0.48
32,5103,"one_slider",6,"Julia","rude","polite","the most polite<br>person in the world","impolite","not polite","person","neg_positive","morphant","female","the most impolite<br>person in the world",0.5
32,11756,"one_slider",7,"Laura","flaky","reliable","the most reliable<br>person in the world","unreliable","not unreliable","person","neg_morphant","morphant","female","the most unreliable<br>person in the world",0.5
32,13653,"one_slider",8,"Kim","resentful","forgiving","the most forgiving<br>person in the world","unforgiving","unforgiving","person","morphant","morphant","female","the most unforgiving<br>person in the world",0
32,4898,"one_slider",9,"Lee","mean","friendly","the most friendly<br>person in the world","unfriendly","friendly","person","positive","morphant","male","the most unfriendly<br>person in the world",0.51
32,11768,"one_slider",10,"John","stupid","intelligent","the most intelligent<br>person in the world","unintelligent","unintelligent","person","morphant","morphant","male","the most unintelligent<br>person in the world",0.22
32,10167,"one_slider",11,"Alicia","fake","sincere","the most sincere<br>person in the world","insincere","not insincere","person","neg_morphant","morphant","female","the most insincere<br>person in the world",0.5
32,5110,"one_slider",12,"Michelle","bigoted","tolerant","the most tolerant<br>person in the world","intolerant","not intolerant","person","neg_morphant","morphant","female","the most intolerant<br>person in the world",0.5
33,6068,"one_slider",1,"Monica","ignorant","educated","the most educated<br>person in the world","uneducated","not educated","person","neg_positive","morphant","female","the most uneducated<br>person in the world",0.43
33,20866,"one_slider",2,"Jennifer","rude","polite","the most polite<br>person in the world","impolite","not polite","person","neg_positive","morphant","female","the most impolite<br>person in the world",0.41
33,4208,"one_slider",3,"Michael","mean","friendly","the most friendly<br>person in the world","unfriendly","friendly","person","positive","morphant","male","the most unfriendly<br>person in the world",0.64
33,7628,"one_slider",4,"Gabriel","fake","sincere","the most sincere<br>person in the world","insincere","not insincere","person","neg_morphant","morphant","male","the most insincere<br>person in the world",0.53
33,3856,"one_slider",5,"Kathleen","bigoted","tolerant","the most tolerant<br>person in the world","intolerant","tolerant","person","positive","morphant","female","the most intolerant<br>person in the world",0.65
33,4645,"one_slider",6,"Greg","traitorous","patriotic","the most patriotic<br>person in the world","unpatriotic","not unpatriotic","person","neg_morphant","morphant","male","the most unpatriotic<br>person in the world",0.52
33,2712,"one_slider",7,"Daniel","cruel","kind","the most kind<br>person in the world","unkind","kind","person","positive","morphant","male","the most unkind<br>person in the world",0.68
33,3629,"one_slider",8,"Alexander","deceitful","honest","the most honest<br>person in the world","dishonest","not honest","person","neg_positive","morphant","male","the most dishonest<br>person in the world",0.4
33,4322,"one_slider",9,"Maya","boring","interesting","the most interesting<br>person in the world","uninteresting","uninteresting","person","morphant","morphant","female","the most uninteresting<br>person in the world",0.3
33,4378,"one_slider",10,"Anthony","childish","mature","the most mature<br>person in the world","immature","immature","person","morphant","morphant","male","the most immature<br>person in the world",0.28
33,3714,"one_slider",11,"Stephanie","wasteful","resourceful","the most resourceful<br>person in the world","unresourceful","not unresourceful","person","neg_morphant","morphant","female","the most unresourceful<br>person in the world",0.48
33,3999,"one_slider",12,"Tom","resentful","forgiving","the most forgiving<br>person in the world","unforgiving","unforgiving","person","morphant","morphant","male","the most unforgiving<br>person in the world",0.33
34,8266,"one_slider",1,"Cameron","resentful","forgiving","the most forgiving<br>person in the world","unforgiving","forgiving","person","positive","morphant","male","the most unforgiving<br>person in the world",0.57
34,5513,"one_slider",2,"Alicia","boring","interesting","the most interesting<br>person in the world","uninteresting","interesting","person","positive","morphant","female","the most uninteresting<br>person in the world",0.49
34,5306,"one_slider",3,"Stephen","rude","polite","the most polite<br>person in the world","impolite","not impolite","person","neg_morphant","morphant","male","the most impolite<br>person in the world",0.37
34,5718,"one_slider",4,"Daniel","bigoted","tolerant","the most tolerant<br>person in the world","intolerant","not intolerant","person","neg_morphant","morphant","male","the most intolerant<br>person in the world",0.42
34,5929,"one_slider",5,"Kathleen","sad","happy","the most happy<br>person in the world","unhappy","unhappy","person","morphant","morphant","female","the most unhappy<br>person in the world",0.32
34,4573,"one_slider",6,"Michael","cold","affectionate","the most affectionate<br>person in the world","unaffectionate","not affectionate","person","neg_positive","morphant","male","the most unaffectionate<br>person in the world",0.15
34,3363,"one_slider",7,"Laura","stupid","intelligent","the most intelligent<br>person in the world","unintelligent","not intelligent","person","neg_positive","morphant","female","the most unintelligent<br>person in the world",0.16
34,4382,"one_slider",8,"David","deceitful","honest","the most honest<br>person in the world","dishonest","dishonest","person","morphant","morphant","male","the most dishonest<br>person in the world",0.08
34,3436,"one_slider",9,"Claire","crazy","rational","the most rational<br>person in the world","irrational","not rational","person","neg_positive","morphant","female","the most irrational<br>person in the world",0.28
34,7731,"one_slider",10,"Michelle","wasteful","resourceful","the most resourceful<br>person in the world","unresourceful","not unresourceful","person","neg_morphant","morphant","female","the most unresourceful<br>person in the world",0.41
34,4364,"one_slider",11,"Monica","cruel","kind","the most kind<br>person in the world","unkind","unkind","person","morphant","morphant","female","the most unkind<br>person in the world",0.31
34,3454,"one_slider",12,"Anthony","stingy","generous","the most generous<br>person in the world","ungenerous","generous","person","positive","morphant","male","the most ungenerous<br>person in the world",0.53
35,11758,"one_slider",1,"Julia","stupid","intelligent","the most intelligent<br>person in the world","unintelligent","intelligent","person","positive","morphant","female","the most unintelligent<br>person in the world",0.58
35,9478,"one_slider",2,"Cameron","fake","sincere","the most sincere<br>person in the world","insincere","not insincere","person","neg_morphant","morphant","male","the most insincere<br>person in the world",0.49
35,3652,"one_slider",3,"Michael","cruel","kind","the most kind<br>person in the world","unkind","not unkind","person","neg_morphant","morphant","male","the most unkind<br>person in the world",0.5
35,4937,"one_slider",4,"Lucas","cold","affectionate","the most affectionate<br>person in the world","unaffectionate","affectionate","person","positive","morphant","male","the most unaffectionate<br>person in the world",0.57
35,3793,"one_slider",5,"David","ugly","attractive","the most attractive<br>person in the world","unattractive","attractive","person","positive","morphant","male","the most unattractive<br>person in the world",0.58
35,6872,"one_slider",6,"Eric","lazy","ambitious","the most ambitious<br>person in the world","unambitious","unambitious","person","morphant","morphant","male","the most unambitious<br>person in the world",0.33
35,3727,"one_slider",7,"Angela","mean","friendly","the most friendly<br>person in the world","unfriendly","not unfriendly","person","neg_morphant","morphant","female","the most unfriendly<br>person in the world",0.49
35,4513,"one_slider",8,"Kim","sad","happy","the most happy<br>person in the world","unhappy","not happy","person","neg_positive","morphant","female","the most unhappy<br>person in the world",0.39
35,4828,"one_slider",9,"Kathleen","ignorant","educated","the most educated<br>person in the world","uneducated","not educated","person","neg_positive","morphant","female","the most uneducated<br>person in the world",0.41
35,5464,"one_slider",10,"Alicia","bigoted","tolerant","the most tolerant<br>person in the world","intolerant","intolerant","person","morphant","morphant","female","the most intolerant<br>person in the world",0.34
35,3939,"one_slider",11,"Laura","traitorous","patriotic","the most patriotic<br>person in the world","unpatriotic","unpatriotic","person","morphant","morphant","female","the most unpatriotic<br>person in the world",0.23
35,3806,"one_slider",12,"Stephanie","flaky","reliable","the most reliable<br>person in the world","unreliable","not reliable","person","neg_positive","morphant","female","the most unreliable<br>person in the world",0.36
36,8512,"one_slider",1,"William","cruel","kind","the most kind<br>person in the world","unkind","kind","person","positive","morphant","male","the most unkind<br>person in the world",0.7
36,3764,"one_slider",2,"Kathleen","stingy","generous","the most generous<br>person in the world","ungenerous","generous","person","positive","morphant","female","the most ungenerous<br>person in the world",0.64
36,1939,"one_slider",3,"Cameron","rude","polite","the most polite<br>person in the world","impolite","not impolite","person","neg_morphant","morphant","male","the most impolite<br>person in the world",0.69
36,1116,"one_slider",4,"David","crazy","rational","the most rational<br>person in the world","irrational","not rational","person","neg_positive","morphant","male","the most irrational<br>person in the world",0.64
36,2355,"one_slider",5,"Tom","lazy","ambitious","the most ambitious<br>person in the world","unambitious","not ambitious","person","neg_positive","morphant","male","the most unambitious<br>person in the world",0.4
36,1459,"one_slider",6,"Melinda","fake","sincere","the most sincere<br>person in the world","insincere","not insincere","person","neg_morphant","morphant","female","the most insincere<br>person in the world",0.63
36,1277,"one_slider",7,"Angela","ignorant","educated","the most educated<br>person in the world","uneducated","uneducated","person","morphant","morphant","female","the most uneducated<br>person in the world",0.41
36,1986,"one_slider",8,"Daniel","resentful","forgiving","the most forgiving<br>person in the world","unforgiving","unforgiving","person","morphant","morphant","male","the most unforgiving<br>person in the world",0.8
36,2462,"one_slider",9,"Greg","traitorous","patriotic","the most patriotic<br>person in the world","unpatriotic","not patriotic","person","neg_positive","morphant","male","the most unpatriotic<br>person in the world",0.16
36,1133,"one_slider",10,"Lee","wasteful","resourceful","the most resourceful<br>person in the world","unresourceful","not unresourceful","person","neg_morphant","morphant","male","the most unresourceful<br>person in the world",0.36
36,1064,"one_slider",11,"Stephen","ugly","attractive","the most attractive<br>person in the world","unattractive","unattractive","person","morphant","morphant","male","the most unattractive<br>person in the world",0.58
36,2108,"one_slider",12,"Claire","boring","interesting","the most interesting<br>person in the world","uninteresting","interesting","person","positive","morphant","female","the most uninteresting<br>person in the world",0.6
37,11974,"one_slider",1,"Maya","wasteful","resourceful","the most resourceful<br>person in the world","unresourceful","resourceful","person","positive","morphant","female","the most unresourceful<br>person in the world",0.72
37,33956,"one_slider",2,"William","fake","sincere","the most sincere<br>person in the world","insincere","not sincere","person","neg_positive","morphant","male","the most insincere<br>person in the world",0.39
37,4504,"one_slider",3,"Jennifer","bigoted","tolerant","the most tolerant<br>person in the world","intolerant","not tolerant","person","neg_positive","morphant","female","the most intolerant<br>person in the world",0.28
37,6314,"one_slider",4,"Michael","mean","friendly","the most friendly<br>person in the world","unfriendly","friendly","person","positive","morphant","male","the most unfriendly<br>person in the world",0.68
37,3536,"one_slider",5,"Anthony","rude","polite","the most polite<br>person in the world","impolite","impolite","person","morphant","morphant","male","the most impolite<br>person in the world",0.2
37,3296,"one_slider",6,"Lee","lazy","ambitious","the most ambitious<br>person in the world","unambitious","not ambitious","person","neg_positive","morphant","male","the most unambitious<br>person in the world",0.34
37,5635,"one_slider",7,"Greg","boring","interesting","the most interesting<br>person in the world","uninteresting","not uninteresting","person","neg_morphant","morphant","male","the most uninteresting<br>person in the world",0.73
37,3512,"one_slider",8,"Daniel","flaky","reliable","the most reliable<br>person in the world","unreliable","reliable","person","positive","morphant","male","the most unreliable<br>person in the world",0.7
37,7231,"one_slider",9,"Claire","ignorant","educated","the most educated<br>person in the world","uneducated","not uneducated","person","neg_morphant","morphant","female","the most uneducated<br>person in the world",0.73
37,2853,"one_slider",10,"Kim","traitorous","patriotic","the most patriotic<br>person in the world","unpatriotic","unpatriotic","person","morphant","morphant","female","the most unpatriotic<br>person in the world",0.28
37,3191,"one_slider",11,"Julia","ugly","attractive","the most attractive<br>person in the world","unattractive","unattractive","person","morphant","morphant","female","the most unattractive<br>person in the world",0.33
37,4090,"one_slider",12,"Tom","childish","mature","the most mature<br>person in the world","immature","not immature","person","neg_morphant","morphant","male","the most immature<br>person in the world",0.74
38,5099,"one_slider",1,"Laura","sad","happy","the most happy<br>person in the world","unhappy","not happy","person","neg_positive","morphant","female","the most unhappy<br>person in the world",0.12
38,2318,"one_slider",2,"Monica","boring","interesting","the most interesting<br>person in the world","uninteresting","interesting","person","positive","morphant","female","the most uninteresting<br>person in the world",0.73
38,2928,"one_slider",3,"Greg","fake","sincere","the most sincere<br>person in the world","insincere","not insincere","person","neg_morphant","morphant","male","the most insincere<br>person in the world",0.1
38,2578,"one_slider",4,"Sophia","ignorant","educated","the most educated<br>person in the world","uneducated","educated","person","positive","morphant","female","the most uneducated<br>person in the world",0.7
38,3552,"one_slider",5,"Alexander","crazy","rational","the most rational<br>person in the world","irrational","not rational","person","neg_positive","morphant","male","the most irrational<br>person in the world",0.07
38,2331,"one_slider",6,"Veronica","resentful","forgiving","the most forgiving<br>person in the world","unforgiving","unforgiving","person","morphant","morphant","female","the most unforgiving<br>person in the world",0.18
38,2550,"one_slider",7,"Stephen","wasteful","resourceful","the most resourceful<br>person in the world","unresourceful","not unresourceful","person","neg_morphant","morphant","male","the most unresourceful<br>person in the world",0.3
38,3148,"one_slider",8,"Cameron","childish","mature","the most mature<br>person in the world","immature","immature","person","morphant","morphant","male","the most immature<br>person in the world",0.13
38,3822,"one_slider",9,"Melinda","traitorous","patriotic","the most patriotic<br>person in the world","unpatriotic","not patriotic","person","neg_positive","morphant","female","the most unpatriotic<br>person in the world",0.2
38,3206,"one_slider",10,"Claire","deceitful","honest","the most honest<br>person in the world","dishonest","honest","person","positive","morphant","female","the most dishonest<br>person in the world",0.87
