"workerid","rt","trial_type","trial_num","name","response","positive","endpoint_high","negation","sentence_type","adjective","referent","gender","superlative_endpoints","endpoint_low","antonym"
0,2470,"one_slider",1,"Gabriel",0.42,"wise","most wise","lexical","neg_positive","not wise","person","male",0,"most foolish","foolish"
0,1255,"one_slider",2,"Kathleen",0.49,"interesting","most interesting","morphological","neg_antonym","not uninteresting","person","female",0,"most uninteresting","uninteresting"
0,1392,"one_slider",3,"Alexander",0.62,"rich","richest","lexical","antonym","poor","person","male",1,"poorest","poor"
0,1319,"one_slider",4,"William",0.54,"tall","tallest","lexical","positive","tall","person","male",1,"shortest","short"
0,1280,"one_slider",5,"Jennifer",0.63,"strong","strongest","lexical","neg_antonym","not weak","person","female",1,"weakest","weak"
0,1359,"one_slider",6,"Claire",0.48,"educated","most educated","morphological","neg_positive","not educated","person","female",0,"most uneducated","uneducated"
0,1544,"one_slider",7,"Stephanie",0.54,"brave","most brave","lexical","neg_antonym","not cowardly","person","female",0,"most cowardly","cowardly"
0,1143,"one_slider",8,"David",0.44,"honest","most honest","morphological","neg_antonym","not dishonest","person","male",0,"most dishonest","dishonest"
0,1343,"one_slider",9,"Daniel",0.58,"friendly","most friendly","morphological","positive","friendly","person","male",0,"most unfriendly","unfriendly"
0,1471,"one_slider",10,"Kim",0.63,"hard-working","most hard-working","lexical","antonym","lazy","person","female",0,"most lazy","lazy"
0,1352,"one_slider",11,"Tom",0.59,"attractive","most attractive","morphological","positive","attractive","person","male",0,"most unattractive","unattractive"
0,1206,"one_slider",12,"Melinda",0.68,"polite","most polite","morphological","neg_positive","not polite","person","female",0,"most impolite","impolite"
0,1184,"one_slider",13,"Laura",0.71,"happy","happiest","morphological","antonym","unhappy","person","female",1,"unhappiest","unhappy"
0,1295,"one_slider",14,"Greg",0.49,"successful","most successful","morphological","antonym","unsuccessful","person","male",0,"most unsuccessful","unsuccessful"
0,2071,"one_slider",15,"Maya",0.39,"loud","most loud","lexical","neg_positive","not loud","person","female",0,"most quiet","quiet"
0,1239,"one_slider",16,"Stephen",0.36,"fat","fattest","lexical","positive","fat","person","male",1,"skinniest","skinny"
1,4611,"one_slider",1,"Maya",0.57,"polite","most polite","morphological","neg_antonym","not impolite","person","female",0,"most impolite","impolite"
1,4803,"one_slider",2,"Stephen",0.29,"successful","most successful","morphological","neg_positive","not successful","person","male",0,"most unsuccessful","unsuccessful"
1,4738,"one_slider",3,"Sophia",0.36,"mature","most mature","morphological","neg_positive","not mature","person","female",0,"most immature","immature"
1,3309,"one_slider",4,"Cameron",0.77,"honest","most honest","morphological","positive","honest","person","male",0,"most dishonest","dishonest"
1,3852,"one_slider",5,"William",0.28,"proud","most proud","lexical","neg_positive","not proud","person","male",0,"most humble","humble"
1,3187,"one_slider",6,"Laura",0.54,"tall","tallest","lexical","neg_antonym","not short","person","female",1,"shortest","short"
1,3785,"one_slider",7,"Veronica",0.83,"hard-working","most hard-working","lexical","positive","hard-working","person","female",0,"most lazy","lazy"
1,2961,"one_slider",8,"Monica",0.39,"loud","most loud","lexical","neg_positive","not loud","person","female",0,"most quiet","quiet"
1,3975,"one_slider",9,"Lucas",0.82,"brave","most brave","lexical","positive","brave","person","male",0,"most cowardly","cowardly"
1,3137,"one_slider",10,"Claire",0.27,"rich","richest","lexical","antonym","poor","person","female",1,"poorest","poor"
1,2498,"one_slider",11,"Michelle",0.81,"interesting","most interesting","morphological","positive","interesting","person","female",0,"most uninteresting","uninteresting"
1,2712,"one_slider",12,"Michael",0.19,"intelligent","most intelligent","morphological","antonym","unintelligent","person","male",0,"most unintelligent","unintelligent"
1,3054,"one_slider",13,"Melinda",0.18,"beautiful","most beautiful","lexical","antonym","ugly","person","female",0,"most ugly","ugly"
1,2844,"one_slider",14,"David",0.58,"fat","fattest","lexical","neg_antonym","not skinny","person","male",1,"skinniest","skinny"
1,2945,"one_slider",15,"Kathleen",0.19,"happy","happiest","morphological","antonym","unhappy","person","female",1,"unhappiest","unhappy"
1,3262,"one_slider",16,"Kim",0.57,"friendly","most friendly","morphological","neg_antonym","not unfriendly","person","female",0,"most unfriendly","unfriendly"
2,16862,"one_slider",1,"Cameron",0.22,"hard-working","most hard-working","lexical","neg_positive","not hard-working","person","male",0,"most lazy","lazy"
2,4210,"one_slider",2,"Michelle",0.01,"brave","most brave","lexical","antonym","cowardly","person","female",0,"most cowardly","cowardly"
2,5273,"one_slider",3,"Melinda",0.48,"rich","richest","lexical","neg_positive","not rich","person","female",1,"poorest","poor"
2,4477,"one_slider",4,"Daniel",0.82,"polite","most polite","morphological","positive","polite","person","male",0,"most impolite","impolite"
2,5446,"one_slider",5,"Angela",0.72,"tall","tallest","lexical","neg_antonym","not short","person","female",1,"shortest","short"
2,6249,"one_slider",6,"Jennifer",0.79,"proud","most proud","lexical","neg_antonym","not humble","person","female",0,"most humble","humble"
2,4888,"one_slider",7,"Lucas",0.13,"fat","fattest","lexical","antonym","skinny","person","male",1,"skinniest","skinny"
2,7360,"one_slider",8,"Kathleen",0.28,"intelligent","most intelligent","morphological","antonym","unintelligent","person","female",0,"most unintelligent","unintelligent"
2,3060,"one_slider",9,"David",0.7,"educated","most educated","morphological","positive","educated","person","male",0,"most uneducated","uneducated"
2,4381,"one_slider",10,"Julia",0.59,"strong","strongest","lexical","positive","strong","person","female",1,"weakest","weak"
2,3507,"one_slider",11,"Alicia",0.38,"honest","most honest","morphological","antonym","dishonest","person","female",0,"most dishonest","dishonest"
2,3046,"one_slider",12,"Sophia",0.39,"happy","happiest","morphological","neg_positive","not happy","person","female",1,"unhappiest","unhappy"
2,3953,"one_slider",13,"Anthony",0.36,"successful","most successful","morphological","neg_antonym","not unsuccessful","person","male",0,"most unsuccessful","unsuccessful"
2,5844,"one_slider",14,"Lee",0.36,"interesting","most interesting","morphological","neg_positive","not interesting","person","male",0,"most uninteresting","uninteresting"
2,3041,"one_slider",15,"Gabriel",0.7,"beautiful","most beautiful","lexical","positive","beautiful","person","male",0,"most ugly","ugly"
2,3901,"one_slider",16,"Tom",0.75,"friendly","most friendly","morphological","neg_antonym","not unfriendly","person","male",0,"most unfriendly","unfriendly"
3,6629,"one_slider",1,"Claire",0.28,"polite","most polite","morphological","antonym","impolite","person","female",0,"most impolite","impolite"
3,7030,"one_slider",2,"Angela",0.23,"educated","most educated","morphological","neg_positive","not educated","person","female",0,"most uneducated","uneducated"
3,3473,"one_slider",3,"Cameron",0.37,"beautiful","most beautiful","lexical","neg_positive","not beautiful","person","male",0,"most ugly","ugly"
3,4174,"one_slider",4,"Greg",0.23,"loud","most loud","lexical","neg_positive","not loud","person","male",0,"most quiet","quiet"
3,3439,"one_slider",5,"Sophia",0.68,"fat","fattest","lexical","positive","fat","person","female",1,"skinniest","skinny"
3,4006,"one_slider",6,"Daniel",0.78,"brave","most brave","lexical","positive","brave","person","male",0,"most cowardly","cowardly"
3,5427,"one_slider",7,"Eric",0.19,"honest","most honest","morphological","neg_positive","not honest","person","male",0,"most dishonest","dishonest"
3,14114,"one_slider",8,"Michael",0.87,"friendly","most friendly","morphological","positive","friendly","person","male",0,"most unfriendly","unfriendly"
3,3232,"one_slider",9,"John",0.2,"attractive","most attractive","morphological","antonym","unattractive","person","male",0,"most unattractive","unattractive"
3,5564,"one_slider",10,"Maya",0.75,"successful","most successful","morphological","neg_antonym","not unsuccessful","person","female",0,"most unsuccessful","unsuccessful"
3,7145,"one_slider",11,"Jennifer",0.77,"proud","most proud","lexical","neg_antonym","not humble","person","female",0,"most humble","humble"
3,5530,"one_slider",12,"Veronica",0.71,"intelligent","most intelligent","morphological","positive","intelligent","person","female",0,"most unintelligent","unintelligent"
3,3182,"one_slider",13,"Anthony",0.2,"strong","strongest","lexical","antonym","weak","person","male",1,"weakest","weak"
3,2468,"one_slider",14,"David",0.18,"hard-working","most hard-working","lexical","antonym","lazy","person","male",0,"most lazy","lazy"
3,6529,"one_slider",15,"Stephanie",0.56,"rich","richest","lexical","neg_antonym","not poor","person","female",1,"poorest","poor"
3,5221,"one_slider",16,"Tom",0.65,"mature","most mature","morphological","neg_antonym","not immature","person","male",0,"most immature","immature"
4,7143,"one_slider",1,"Claire",0.74,"polite","most polite","morphological","positive","polite","person","female",0,"most impolite","impolite"
4,8693,"one_slider",2,"Daniel",0.43,"brave","most brave","lexical","neg_antonym","not cowardly","person","male",0,"most cowardly","cowardly"
4,6282,"one_slider",3,"Laura",0.64,"beautiful","most beautiful","lexical","positive","beautiful","person","female",0,"most ugly","ugly"
4,6036,"one_slider",4,"Alexander",0.12,"strong","strongest","lexical","antonym","weak","person","male",1,"weakest","weak"
4,3323,"one_slider",5,"Tom",0.69,"intelligent","most intelligent","morphological","positive","intelligent","person","male",0,"most unintelligent","unintelligent"
4,4585,"one_slider",6,"Kathleen",0.21,"interesting","most interesting","morphological","antonym","uninteresting","person","female",0,"most uninteresting","uninteresting"
4,6364,"one_slider",7,"Sophia",0.56,"educated","most educated","morphological","neg_antonym","not uneducated","person","female",0,"most uneducated","uneducated"
4,4077,"one_slider",8,"Gabriel",0.35,"loud","most loud","lexical","neg_positive","not loud","person","male",0,"most quiet","quiet"
4,4403,"one_slider",9,"Eric",0.4,"rich","richest","lexical","neg_positive","not rich","person","male",1,"poorest","poor"
4,7974,"one_slider",10,"Michael",0.63,"wise","most wise","lexical","positive","wise","person","male",0,"most foolish","foolish"
4,2793,"one_slider",11,"Lee",0.26,"successful","most successful","morphological","antonym","unsuccessful","person","male",0,"most unsuccessful","unsuccessful"
4,4626,"one_slider",12,"Michelle",0.18,"fat","fattest","lexical","antonym","skinny","person","female",1,"skinniest","skinny"
4,3953,"one_slider",13,"Angela",0.35,"friendly","most friendly","morphological","neg_positive","not friendly","person","female",0,"most unfriendly","unfriendly"
4,3588,"one_slider",14,"Anthony",0.62,"mature","most mature","morphological","neg_antonym","not immature","person","male",0,"most immature","immature"
4,6166,"one_slider",15,"Kim",0.58,"hard-working","most hard-working","lexical","neg_antonym","not lazy","person","female",0,"most lazy","lazy"
4,3763,"one_slider",16,"Maya",0.14,"attractive","most attractive","morphological","neg_positive","not attractive","person","female",0,"most unattractive","unattractive"
5,15417,"one_slider",1,"Kathleen",0.79,"intelligent","most intelligent","morphological","positive","intelligent","person","female",0,"most unintelligent","unintelligent"
5,15415,"one_slider",2,"Maya",0.83,"mature","most mature","morphological","positive","mature","person","female",0,"most immature","immature"
5,23409,"one_slider",3,"Sophia",0.78,"hard-working","most hard-working","lexical","neg_antonym","not lazy","person","female",0,"most lazy","lazy"
5,11990,"one_slider",4,"Melinda",0.14,"rich","richest","lexical","antonym","poor","person","female",1,"poorest","poor"
5,12462,"one_slider",5,"Angela",0.1,"happy","happiest","morphological","neg_positive","not happy","person","female",1,"unhappiest","unhappy"
5,22316,"one_slider",6,"Michael",0.12,"proud","most proud","lexical","neg_positive","not proud","person","male",0,"most humble","humble"
5,9634,"one_slider",7,"Michelle",0.11,"friendly","most friendly","morphological","antonym","unfriendly","person","female",0,"most unfriendly","unfriendly"
5,26098,"one_slider",8,"Kim",0.86,"honest","most honest","morphological","neg_antonym","not dishonest","person","female",0,"most dishonest","dishonest"
5,41100,"one_slider",9,"Alicia",0.51,"beautiful","most beautiful","lexical","neg_positive","not beautiful","person","female",0,"most ugly","ugly"
5,11250,"one_slider",10,"Anthony",0.1,"wise","most wise","lexical","antonym","foolish","person","male",0,"most foolish","foolish"
5,8447,"one_slider",11,"Julia",0.88,"loud","most loud","lexical","positive","loud","person","female",0,"most quiet","quiet"
5,13535,"one_slider",12,"Tom",0.88,"brave","most brave","lexical","neg_antonym","not cowardly","person","male",0,"most cowardly","cowardly"
5,8664,"one_slider",13,"John",0.83,"tall","tallest","lexical","positive","tall","person","male",1,"shortest","short"
5,16451,"one_slider",14,"Gabriel",0.83,"educated","most educated","morphological","neg_antonym","not uneducated","person","male",0,"most uneducated","uneducated"
5,28215,"one_slider",15,"Monica",0.14,"successful","most successful","morphological","antonym","unsuccessful","person","female",0,"most unsuccessful","unsuccessful"
5,31035,"one_slider",16,"Veronica",0.14,"interesting","most interesting","morphological","neg_positive","not interesting","person","female",0,"most uninteresting","uninteresting"
6,22371,"one_slider",1,"Anthony",0.52,"mature","most mature","morphological","antonym","immature","person","male",0,"most immature","immature"
6,5029,"one_slider",2,"Michael",0.48,"happy","happiest","morphological","neg_antonym","not unhappy","person","male",1,"unhappiest","unhappy"
6,3559,"one_slider",3,"Melinda",0.55,"fat","fattest","lexical","positive","fat","person","female",1,"skinniest","skinny"
6,3711,"one_slider",4,"Daniel",0.52,"rich","richest","lexical","neg_positive","not rich","person","male",1,"poorest","poor"
6,7391,"one_slider",5,"Stephen",0.49,"educated","most educated","morphological","positive","educated","person","male",0,"most uneducated","uneducated"
6,5399,"one_slider",6,"David",0.47,"attractive","most attractive","morphological","antonym","unattractive","person","male",0,"most unattractive","unattractive"
6,1975,"one_slider",7,"Stephanie",0.53,"tall","tallest","lexical","antonym","short","person","female",1,"shortest","short"
6,3598,"one_slider",8,"Tom",0.49,"polite","most polite","morphological","neg_positive","not polite","person","male",0,"most impolite","impolite"
6,3801,"one_slider",9,"Kathleen",0.52,"strong","strongest","lexical","neg_antonym","not weak","person","female",1,"weakest","weak"
6,3672,"one_slider",10,"Lee",0.46,"successful","most successful","morphological","neg_antonym","not unsuccessful","person","male",0,"most unsuccessful","unsuccessful"
6,5094,"one_slider",11,"Angela",0.5,"beautiful","most beautiful","lexical","neg_positive","not beautiful","person","female",0,"most ugly","ugly"
6,2871,"one_slider",12,"Cameron",0.57,"loud","most loud","lexical","neg_antonym","not quiet","person","male",0,"most quiet","quiet"
6,2135,"one_slider",13,"Greg",0.41,"interesting","most interesting","morphological","neg_positive","not interesting","person","male",0,"most uninteresting","uninteresting"
6,3527,"one_slider",14,"Michelle",0.49,"brave","most brave","lexical","antonym","cowardly","person","female",0,"most cowardly","cowardly"
6,2359,"one_slider",15,"Laura",0.61,"wise","most wise","lexical","positive","wise","person","female",0,"most foolish","foolish"
6,2263,"one_slider",16,"John",0.64,"honest","most honest","morphological","positive","honest","person","male",0,"most dishonest","dishonest"
7,15977,"one_slider",1,"David",0.25,"intelligent","most intelligent","morphological","antonym","unintelligent","person","male",0,"most unintelligent","unintelligent"
7,9635,"one_slider",2,"Alexander",0.08,"proud","most proud","lexical","antonym","humble","person","male",0,"most humble","humble"
7,8326,"one_slider",3,"Jennifer",0.85,"brave","most brave","lexical","neg_antonym","not cowardly","person","female",0,"most cowardly","cowardly"
7,6115,"one_slider",4,"Sophia",0.2,"beautiful","most beautiful","lexical","neg_positive","not beautiful","person","female",0,"most ugly","ugly"
7,6581,"one_slider",5,"Alicia",0.78,"rich","richest","lexical","neg_antonym","not poor","person","female",1,"poorest","poor"
7,5490,"one_slider",6,"Gabriel",0.18,"strong","strongest","lexical","antonym","weak","person","male",1,"weakest","weak"
7,8033,"one_slider",7,"Kathleen",0.93,"honest","most honest","morphological","neg_antonym","not dishonest","person","female",0,"most dishonest","dishonest"
7,7554,"one_slider",8,"Angela",0.94,"mature","most mature","morphological","neg_antonym","not immature","person","female",0,"most immature","immature"
7,5224,"one_slider",9,"Maya",0.94,"loud","most loud","lexical","positive","loud","person","female",0,"most quiet","quiet"
7,4136,"one_slider",10,"Michelle",0.9,"happy","happiest","morphological","positive","happy","person","female",1,"unhappiest","unhappy"
7,6953,"one_slider",11,"Laura",0.9,"interesting","most interesting","morphological","positive","interesting","person","female",0,"most uninteresting","uninteresting"
7,5089,"one_slider",12,"Greg",0.11,"wise","most wise","lexical","neg_positive","not wise","person","male",0,"most foolish","foolish"
7,10615,"one_slider",13,"Melinda",0.09,"educated","most educated","morphological","antonym","uneducated","person","female",0,"most uneducated","uneducated"
7,8595,"one_slider",14,"Daniel",0.08,"attractive","most attractive","morphological","neg_positive","not attractive","person","male",0,"most unattractive","unattractive"
7,4357,"one_slider",15,"Lee",0.11,"polite","most polite","morphological","neg_positive","not polite","person","male",0,"most impolite","impolite"
7,6366,"one_slider",16,"Julia",0.87,"fat","fattest","lexical","positive","fat","person","female",1,"skinniest","skinny"
8,13130,"one_slider",1,"Angela",0.13,"brave","most brave","lexical","neg_positive","not brave","person","female",0,"most cowardly","cowardly"
8,7084,"one_slider",2,"Laura",1,"successful","most successful","morphological","positive","successful","person","female",0,"most unsuccessful","unsuccessful"
8,4873,"one_slider",3,"Monica",0,"honest","most honest","morphological","neg_positive","not honest","person","female",0,"most dishonest","dishonest"
8,4086,"one_slider",4,"Alicia",1,"rich","richest","lexical","positive","rich","person","female",1,"poorest","poor"
8,3286,"one_slider",5,"Kim",0,"fat","fattest","lexical","antonym","skinny","person","female",1,"skinniest","skinny"
8,3742,"one_slider",6,"John",1,"strong","strongest","lexical","positive","strong","person","male",1,"weakest","weak"
8,4915,"one_slider",7,"Tom",0.12,"hard-working","most hard-working","lexical","antonym","lazy","person","male",0,"most lazy","lazy"
8,6770,"one_slider",8,"William",0,"intelligent","most intelligent","morphological","neg_antonym","not unintelligent","person","male",0,"most unintelligent","unintelligent"
8,4421,"one_slider",9,"Michael",0,"educated","most educated","morphological","antonym","uneducated","person","male",0,"most uneducated","uneducated"
8,8664,"one_slider",10,"Melinda",0.21,"proud","most proud","lexical","neg_positive","not proud","person","female",0,"most humble","humble"
8,4901,"one_slider",11,"Alexander",0.23,"interesting","most interesting","morphological","neg_antonym","not uninteresting","person","male",0,"most uninteresting","uninteresting"
8,6240,"one_slider",12,"Maya",0.42,"loud","most loud","lexical","neg_antonym","not quiet","person","female",0,"most quiet","quiet"
8,4552,"one_slider",13,"Gabriel",0.23,"mature","most mature","morphological","antonym","immature","person","male",0,"most immature","immature"
8,2629,"one_slider",14,"Eric",0.44,"happy","happiest","morphological","neg_positive","not happy","person","male",1,"unhappiest","unhappy"
8,2631,"one_slider",15,"Jennifer",0.42,"tall","tallest","lexical","neg_antonym","not short","person","female",1,"shortest","short"
8,4902,"one_slider",16,"Cameron",0.64,"polite","most polite","morphological","positive","polite","person","male",0,"most impolite","impolite"
9,7015,"one_slider",1,"Kim",0.18,"honest","most honest","morphological","neg_positive","not honest","person","female",0,"most dishonest","dishonest"
9,2688,"one_slider",2,"Cameron",0.12,"successful","most successful","morphological","neg_positive","not successful","person","male",0,"most unsuccessful","unsuccessful"
9,2864,"one_slider",3,"Daniel",0.48,"polite","most polite","morphological","neg_antonym","not impolite","person","male",0,"most impolite","impolite"
9,2584,"one_slider",4,"Alicia",0.05,"wise","most wise","lexical","antonym","foolish","person","female",0,"most foolish","foolish"
9,2600,"one_slider",5,"Stephen",0.18,"attractive","most attractive","morphological","antonym","unattractive","person","male",0,"most unattractive","unattractive"
9,2208,"one_slider",6,"Lee",0.16,"brave","most brave","lexical","neg_positive","not brave","person","male",0,"most cowardly","cowardly"
9,2552,"one_slider",7,"Monica",0.11,"intelligent","most intelligent","morphological","antonym","unintelligent","person","female",0,"most unintelligent","unintelligent"
9,2655,"one_slider",8,"Sophia",0.97,"fat","fattest","lexical","positive","fat","person","female",1,"skinniest","skinny"
9,1936,"one_slider",9,"Gabriel",0.85,"proud","most proud","lexical","positive","proud","person","male",0,"most humble","humble"
9,2608,"one_slider",10,"Michelle",0.47,"happy","happiest","morphological","neg_antonym","not unhappy","person","female",1,"unhappiest","unhappy"
9,2848,"one_slider",11,"Stephanie",0.1,"rich","richest","lexical","antonym","poor","person","female",1,"poorest","poor"
9,2487,"one_slider",12,"Veronica",0.48,"tall","tallest","lexical","neg_antonym","not short","person","female",1,"shortest","short"
9,3376,"one_slider",13,"Kathleen",0.86,"interesting","most interesting","morphological","positive","interesting","person","female",0,"most uninteresting","uninteresting"
9,2463,"one_slider",14,"Angela",0.23,"hard-working","most hard-working","lexical","neg_positive","not hard-working","person","female",0,"most lazy","lazy"
9,3983,"one_slider",15,"William",0.66,"friendly","most friendly","morphological","positive","friendly","person","male",0,"most unfriendly","unfriendly"
9,2768,"one_slider",16,"Lucas",0.51,"beautiful","most beautiful","lexical","neg_antonym","not ugly","person","male",0,"most ugly","ugly"
10,6635,"one_slider",1,"Sophia",0.74,"fat","fattest","lexical","positive","fat","person","female",1,"skinniest","skinny"
10,3083,"one_slider",2,"Michelle",0.09,"successful","most successful","morphological","neg_antonym","not unsuccessful","person","female",0,"most unsuccessful","unsuccessful"
10,3689,"one_slider",3,"Melinda",0.18,"polite","most polite","morphological","neg_positive","not polite","person","female",0,"most impolite","impolite"
10,3040,"one_slider",4,"Daniel",0.2,"hard-working","most hard-working","lexical","antonym","lazy","person","male",0,"most lazy","lazy"
10,3626,"one_slider",5,"Kim",0.76,"wise","most wise","lexical","neg_antonym","not foolish","person","female",0,"most foolish","foolish"
10,5229,"one_slider",6,"Claire",0.21,"tall","tallest","lexical","neg_positive","not tall","person","female",1,"shortest","short"
10,5261,"one_slider",7,"Alicia",0.28,"friendly","most friendly","morphological","antonym","unfriendly","person","female",0,"most unfriendly","unfriendly"
10,3055,"one_slider",8,"Veronica",0.7,"rich","richest","lexical","neg_antonym","not poor","person","female",1,"poorest","poor"
10,3404,"one_slider",9,"Alexander",0.25,"happy","happiest","morphological","neg_positive","not happy","person","male",1,"unhappiest","unhappy"
10,3131,"one_slider",10,"Gabriel",0.64,"honest","most honest","morphological","positive","honest","person","male",0,"most dishonest","dishonest"
10,2863,"one_slider",11,"Lucas",0.16,"loud","most loud","lexical","antonym","quiet","person","male",0,"most quiet","quiet"
10,2318,"one_slider",12,"Monica",0.57,"interesting","most interesting","morphological","positive","interesting","person","female",0,"most uninteresting","uninteresting"
10,1991,"one_slider",13,"Kathleen",0.24,"strong","strongest","lexical","neg_positive","not strong","person","female",1,"weakest","weak"
10,2893,"one_slider",14,"Greg",0.22,"attractive","most attractive","morphological","antonym","unattractive","person","male",0,"most unattractive","unattractive"
10,2799,"one_slider",15,"Cameron",0.6,"mature","most mature","morphological","neg_antonym","not immature","person","male",0,"most immature","immature"
10,1905,"one_slider",16,"Anthony",0.55,"proud","most proud","lexical","positive","proud","person","male",0,"most humble","humble"
11,7619,"one_slider",1,"Michael",0.41,"strong","strongest","lexical","antonym","weak","person","male",1,"weakest","weak"
11,3220,"one_slider",2,"Kim",0.36,"happy","happiest","morphological","antonym","unhappy","person","female",1,"unhappiest","unhappy"
11,3356,"one_slider",3,"Angela",0.66,"rich","richest","lexical","positive","rich","person","female",1,"poorest","poor"
11,5035,"one_slider",4,"Melinda",0.61,"fat","fattest","lexical","neg_antonym","not skinny","person","female",1,"skinniest","skinny"
11,3792,"one_slider",5,"Stephen",0.63,"proud","most proud","lexical","neg_antonym","not humble","person","male",0,"most humble","humble"
11,3039,"one_slider",6,"Monica",0.38,"honest","most honest","morphological","neg_positive","not honest","person","female",0,"most dishonest","dishonest"
11,3076,"one_slider",7,"Eric",0.33,"beautiful","most beautiful","lexical","antonym","ugly","person","male",0,"most ugly","ugly"
11,3040,"one_slider",8,"David",0.64,"loud","most loud","lexical","neg_positive","not loud","person","male",0,"most quiet","quiet"
11,3634,"one_slider",9,"Cameron",0.3,"mature","most mature","morphological","antonym","immature","person","male",0,"most immature","immature"
11,2589,"one_slider",10,"Maya",0.56,"successful","most successful","morphological","positive","successful","person","female",0,"most unsuccessful","unsuccessful"
11,3053,"one_slider",11,"Michelle",0.6,"brave","most brave","lexical","positive","brave","person","female",0,"most cowardly","cowardly"
11,6617,"one_slider",12,"Alicia",0.63,"attractive","most attractive","morphological","neg_antonym","not unattractive","person","female",0,"most unattractive","unattractive"
11,5436,"one_slider",13,"Kathleen",0.32,"educated","most educated","morphological","neg_positive","not educated","person","female",0,"most uneducated","uneducated"
11,4911,"one_slider",14,"Stephanie",0.54,"friendly","most friendly","morphological","neg_antonym","not unfriendly","person","female",0,"most unfriendly","unfriendly"
11,4086,"one_slider",15,"Lee",0.63,"polite","most polite","morphological","positive","polite","person","male",0,"most impolite","impolite"
11,3478,"one_slider",16,"Veronica",0.35,"wise","most wise","lexical","neg_positive","not wise","person","female",0,"most foolish","foolish"
12,11192,"one_slider",1,"Greg",0.32,"attractive","most attractive","morphological","antonym","unattractive","person","male",0,"most unattractive","unattractive"
12,6685,"one_slider",2,"Laura",0.71,"tall","tallest","lexical","neg_antonym","not short","person","female",1,"shortest","short"
12,5390,"one_slider",3,"Alexander",0.81,"hard-working","most hard-working","lexical","positive","hard-working","person","male",0,"most lazy","lazy"
12,3405,"one_slider",4,"Gabriel",0.06,"educated","most educated","morphological","neg_positive","not educated","person","male",0,"most uneducated","uneducated"
12,4225,"one_slider",5,"Kathleen",0.85,"friendly","most friendly","morphological","neg_antonym","not unfriendly","person","female",0,"most unfriendly","unfriendly"
12,4225,"one_slider",6,"William",0.06,"interesting","most interesting","morphological","neg_positive","not interesting","person","male",0,"most uninteresting","uninteresting"
12,4031,"one_slider",7,"Michelle",0.09,"loud","most loud","lexical","antonym","quiet","person","female",0,"most quiet","quiet"
12,3499,"one_slider",8,"David",0.11,"brave","most brave","lexical","antonym","cowardly","person","male",0,"most cowardly","cowardly"
12,3920,"one_slider",9,"Eric",0.88,"happy","happiest","morphological","positive","happy","person","male",1,"unhappiest","unhappy"
12,6483,"one_slider",10,"Anthony",0.03,"proud","most proud","lexical","neg_positive","not proud","person","male",0,"most humble","humble"
12,3421,"one_slider",11,"Tom",0.98,"successful","most successful","morphological","positive","successful","person","male",0,"most unsuccessful","unsuccessful"
12,3999,"one_slider",12,"Monica",0.6,"fat","fattest","lexical","neg_antonym","not skinny","person","female",1,"skinniest","skinny"
12,4866,"one_slider",13,"John",0.1,"polite","most polite","morphological","antonym","impolite","person","male",0,"most impolite","impolite"
12,3422,"one_slider",14,"Alicia",0.66,"beautiful","most beautiful","lexical","positive","beautiful","person","female",0,"most ugly","ugly"
12,3992,"one_slider",15,"Kim",0.19,"strong","strongest","lexical","neg_positive","not strong","person","female",1,"weakest","weak"
12,6490,"one_slider",16,"Daniel",0.78,"intelligent","most intelligent","morphological","neg_antonym","not unintelligent","person","male",0,"most unintelligent","unintelligent"
13,5511,"one_slider",1,"Daniel",0.77,"successful","most successful","morphological","neg_antonym","not unsuccessful","person","male",0,"most unsuccessful","unsuccessful"
13,3100,"one_slider",2,"David",0.69,"fat","fattest","lexical","positive","fat","person","male",1,"skinniest","skinny"
13,2023,"one_slider",3,"Greg",0.74,"brave","most brave","lexical","positive","brave","person","male",0,"most cowardly","cowardly"
13,2675,"one_slider",4,"Stephanie",0.74,"tall","tallest","lexical","neg_antonym","not short","person","female",1,"shortest","short"
13,4368,"one_slider",5,"Alexander",0.73,"friendly","most friendly","morphological","neg_antonym","not unfriendly","person","male",0,"most unfriendly","unfriendly"
13,2302,"one_slider",6,"Sophia",0.74,"intelligent","most intelligent","morphological","positive","intelligent","person","female",0,"most unintelligent","unintelligent"
13,3292,"one_slider",7,"Lucas",0.23,"happy","happiest","morphological","neg_positive","not happy","person","male",1,"unhappiest","unhappy"
13,2206,"one_slider",8,"Michael",0.24,"educated","most educated","morphological","neg_positive","not educated","person","male",0,"most uneducated","uneducated"
13,2308,"one_slider",9,"Claire",0.27,"loud","most loud","lexical","neg_positive","not loud","person","female",0,"most quiet","quiet"
13,2250,"one_slider",10,"Monica",0.26,"strong","strongest","lexical","neg_positive","not strong","person","female",1,"weakest","weak"
13,2996,"one_slider",11,"Veronica",0.25,"interesting","most interesting","morphological","antonym","uninteresting","person","female",0,"most uninteresting","uninteresting"
13,2734,"one_slider",12,"Kathleen",0.29,"polite","most polite","morphological","antonym","impolite","person","female",0,"most impolite","impolite"
13,1988,"one_slider",13,"John",0.7,"attractive","most attractive","morphological","positive","attractive","person","male",0,"most unattractive","unattractive"
13,2977,"one_slider",14,"Lee",0.73,"wise","most wise","lexical","neg_antonym","not foolish","person","male",0,"most foolish","foolish"
13,2078,"one_slider",15,"Maya",0.32,"rich","richest","lexical","antonym","poor","person","female",1,"poorest","poor"
13,2025,"one_slider",16,"Kim",0.33,"hard-working","most hard-working","lexical","antonym","lazy","person","female",0,"most lazy","lazy"
14,3771,"one_slider",1,"Kim",0.38,"friendly","most friendly","morphological","neg_antonym","not unfriendly","person","female",0,"most unfriendly","unfriendly"
14,2204,"one_slider",2,"Julia",0.5,"interesting","most interesting","morphological","antonym","uninteresting","person","female",0,"most uninteresting","uninteresting"
14,1319,"one_slider",3,"Michael",0.56,"mature","most mature","morphological","positive","mature","person","male",0,"most immature","immature"
14,1238,"one_slider",4,"Angela",0.21,"strong","strongest","lexical","neg_antonym","not weak","person","female",1,"weakest","weak"
14,1407,"one_slider",5,"Claire",0.68,"educated","most educated","morphological","positive","educated","person","female",0,"most uneducated","uneducated"
14,1623,"one_slider",6,"Greg",0.53,"loud","most loud","lexical","positive","loud","person","male",0,"most quiet","quiet"
14,1158,"one_slider",7,"Lucas",0.56,"beautiful","most beautiful","lexical","antonym","ugly","person","male",0,"most ugly","ugly"
14,1333,"one_slider",8,"Cameron",0.79,"attractive","most attractive","morphological","neg_antonym","not unattractive","person","male",0,"most unattractive","unattractive"
14,1399,"one_slider",9,"Melinda",0.22,"wise","most wise","lexical","antonym","foolish","person","female",0,"most foolish","foolish"
14,1125,"one_slider",10,"Gabriel",0.6,"rich","richest","lexical","neg_antonym","not poor","person","male",1,"poorest","poor"
14,1273,"one_slider",11,"Alicia",0.39,"tall","tallest","lexical","neg_positive","not tall","person","female",1,"shortest","short"
14,1345,"one_slider",12,"Daniel",0.62,"polite","most polite","morphological","neg_positive","not polite","person","male",0,"most impolite","impolite"
14,1612,"one_slider",13,"Alexander",0.71,"honest","most honest","morphological","antonym","dishonest","person","male",0,"most dishonest","dishonest"
14,1219,"one_slider",14,"Kathleen",0.4,"successful","most successful","morphological","neg_positive","not successful","person","female",0,"most unsuccessful","unsuccessful"
14,1302,"one_slider",15,"Monica",0.65,"fat","fattest","lexical","positive","fat","person","female",1,"skinniest","skinny"
14,1173,"one_slider",16,"Stephanie",0.36,"brave","most brave","lexical","neg_positive","not brave","person","female",0,"most cowardly","cowardly"
15,12404,"one_slider",1,"Lee",0.5,"interesting","most interesting","morphological","neg_positive","not interesting","person","male",0,"most uninteresting","uninteresting"
15,2316,"one_slider",2,"Alicia",0.79,"rich","richest","lexical","positive","rich","person","female",1,"poorest","poor"
15,2313,"one_slider",3,"Lucas",0.24,"polite","most polite","morphological","neg_positive","not polite","person","male",0,"most impolite","impolite"
15,1701,"one_slider",4,"Greg",0.68,"fat","fattest","lexical","neg_positive","not fat","person","male",1,"skinniest","skinny"
15,2012,"one_slider",5,"Laura",0.46,"loud","most loud","lexical","neg_antonym","not quiet","person","female",0,"most quiet","quiet"
15,2576,"one_slider",6,"Julia",0.28,"attractive","most attractive","morphological","antonym","unattractive","person","female",0,"most unattractive","unattractive"
15,1695,"one_slider",7,"Kim",0.75,"mature","most mature","morphological","positive","mature","person","female",0,"most immature","immature"
15,2749,"one_slider",8,"Monica",0.46,"hard-working","most hard-working","lexical","neg_positive","not hard-working","person","female",0,"most lazy","lazy"
15,2189,"one_slider",9,"Stephen",0.74,"wise","most wise","lexical","positive","wise","person","male",0,"most foolish","foolish"
15,2787,"one_slider",10,"Jennifer",0.38,"tall","tallest","lexical","neg_antonym","not short","person","female",1,"shortest","short"
15,1351,"one_slider",11,"Daniel",0.54,"educated","most educated","morphological","neg_antonym","not uneducated","person","male",0,"most uneducated","uneducated"
15,1918,"one_slider",12,"Melinda",0.32,"friendly","most friendly","morphological","antonym","unfriendly","person","female",0,"most unfriendly","unfriendly"
15,2472,"one_slider",13,"Stephanie",0.62,"intelligent","most intelligent","morphological","positive","intelligent","person","female",0,"most unintelligent","unintelligent"
15,1888,"one_slider",14,"Claire",0.28,"strong","strongest","lexical","antonym","weak","person","female",1,"weakest","weak"
15,6883,"one_slider",15,"William",0.67,"honest","most honest","morphological","neg_antonym","not dishonest","person","male",0,"most dishonest","dishonest"
15,2930,"one_slider",16,"Cameron",0.31,"brave","most brave","lexical","antonym","cowardly","person","male",0,"most cowardly","cowardly"
16,8715,"one_slider",1,"David",0.23,"proud","most proud","lexical","neg_positive","not proud","person","male",0,"most humble","humble"
16,4953,"one_slider",2,"Alexander",0.62,"fat","fattest","lexical","positive","fat","person","male",1,"skinniest","skinny"
16,3883,"one_slider",3,"Stephen",0.67,"happy","happiest","morphological","positive","happy","person","male",1,"unhappiest","unhappy"
16,21981,"one_slider",4,"Daniel",0.59,"rich","richest","lexical","neg_antonym","not poor","person","male",1,"poorest","poor"
16,3966,"one_slider",5,"William",0.56,"friendly","most friendly","morphological","neg_antonym","not unfriendly","person","male",0,"most unfriendly","unfriendly"
16,3021,"one_slider",6,"Stephanie",0.23,"wise","most wise","lexical","antonym","foolish","person","female",0,"most foolish","foolish"
16,3578,"one_slider",7,"Monica",0.67,"intelligent","most intelligent","morphological","positive","intelligent","person","female",0,"most unintelligent","unintelligent"
16,4600,"one_slider",8,"Maya",0.27,"attractive","most attractive","morphological","neg_positive","not attractive","person","female",0,"most unattractive","unattractive"
16,3265,"one_slider",9,"Gabriel",0.21,"educated","most educated","morphological","neg_positive","not educated","person","male",0,"most uneducated","uneducated"
16,3904,"one_slider",10,"Melinda",0.19,"successful","most successful","morphological","antonym","unsuccessful","person","female",0,"most unsuccessful","unsuccessful"
16,4607,"one_slider",11,"Sophia",0.18,"brave","most brave","lexical","antonym","cowardly","person","female",0,"most cowardly","cowardly"
16,3858,"one_slider",12,"Veronica",0.58,"tall","tallest","lexical","neg_antonym","not short","person","female",1,"shortest","short"
16,6164,"one_slider",13,"Laura",0.66,"honest","most honest","morphological","neg_antonym","not dishonest","person","female",0,"most dishonest","dishonest"
16,4622,"one_slider",14,"Cameron",0.79,"loud","most loud","lexical","positive","loud","person","male",0,"most quiet","quiet"
16,6406,"one_slider",15,"Alicia",0.24,"polite","most polite","morphological","antonym","impolite","person","female",0,"most impolite","impolite"
16,4645,"one_slider",16,"Kim",0.22,"strong","strongest","lexical","neg_positive","not strong","person","female",1,"weakest","weak"
17,9851,"one_slider",1,"Sophia",0.81,"fat","fattest","lexical","positive","fat","person","female",1,"skinniest","skinny"
17,6518,"one_slider",2,"Alexander",0.68,"interesting","most interesting","morphological","positive","interesting","person","male",0,"most uninteresting","uninteresting"
17,9478,"one_slider",3,"Lee",0.6,"polite","most polite","morphological","neg_antonym","not impolite","person","male",0,"most impolite","impolite"
17,6655,"one_slider",4,"Alicia",0.08,"hard-working","most hard-working","lexical","neg_positive","not hard-working","person","female",0,"most lazy","lazy"
17,5874,"one_slider",5,"William",0.16,"intelligent","most intelligent","morphological","neg_positive","not intelligent","person","male",0,"most unintelligent","unintelligent"
17,6703,"one_slider",6,"Kathleen",0.18,"wise","most wise","lexical","antonym","foolish","person","female",0,"most foolish","foolish"
17,5020,"one_slider",7,"Julia",0.4,"strong","strongest","lexical","neg_positive","not strong","person","female",1,"weakest","weak"
17,5207,"one_slider",8,"Lucas",0.11,"beautiful","most beautiful","lexical","antonym","ugly","person","male",0,"most ugly","ugly"
17,6385,"one_slider",9,"Stephen",0.32,"educated","most educated","morphological","antonym","uneducated","person","male",0,"most uneducated","uneducated"
17,8829,"one_slider",10,"Daniel",0.3,"friendly","most friendly","morphological","neg_positive","not friendly","person","male",0,"most unfriendly","unfriendly"
17,4533,"one_slider",11,"David",0.87,"proud","most proud","lexical","positive","proud","person","male",0,"most humble","humble"
17,6594,"one_slider",12,"Cameron",0.64,"honest","most honest","morphological","neg_antonym","not dishonest","person","male",0,"most dishonest","dishonest"
17,5037,"one_slider",13,"Monica",0.86,"loud","most loud","lexical","neg_antonym","not quiet","person","female",0,"most quiet","quiet"
17,5129,"one_slider",14,"Michelle",0.33,"mature","most mature","morphological","antonym","immature","person","female",0,"most immature","immature"
17,7381,"one_slider",15,"Veronica",0.9,"brave","most brave","lexical","neg_antonym","not cowardly","person","female",0,"most cowardly","cowardly"
17,3976,"one_slider",16,"Michael",0.73,"attractive","most attractive","morphological","positive","attractive","person","male",0,"most unattractive","unattractive"
18,8859,"one_slider",1,"Michael",0.18,"wise","most wise","lexical","neg_positive","not wise","person","male",0,"most foolish","foolish"
18,3202,"one_slider",2,"Alexander",0.74,"intelligent","most intelligent","morphological","positive","intelligent","person","male",0,"most unintelligent","unintelligent"
18,3473,"one_slider",3,"Lucas",0.71,"brave","most brave","lexical","positive","brave","person","male",0,"most cowardly","cowardly"
18,4483,"one_slider",4,"Angela",0.85,"loud","most loud","lexical","neg_antonym","not quiet","person","female",0,"most quiet","quiet"
18,4250,"one_slider",5,"Lee",0.79,"mature","most mature","morphological","positive","mature","person","male",0,"most immature","immature"
18,3947,"one_slider",6,"Gabriel",0.24,"rich","richest","lexical","neg_positive","not rich","person","male",1,"poorest","poor"
18,4082,"one_slider",7,"Greg",0.77,"tall","tallest","lexical","positive","tall","person","male",1,"shortest","short"
18,3082,"one_slider",8,"Sophia",0.72,"fat","fattest","lexical","neg_antonym","not skinny","person","female",1,"skinniest","skinny"
18,3469,"one_slider",9,"Claire",0.71,"interesting","most interesting","morphological","neg_antonym","not uninteresting","person","female",0,"most uninteresting","uninteresting"
18,3567,"one_slider",10,"Daniel",0.15,"hard-working","most hard-working","lexical","antonym","lazy","person","male",0,"most lazy","lazy"
18,5178,"one_slider",11,"David",0.24,"friendly","most friendly","morphological","neg_positive","not friendly","person","male",0,"most unfriendly","unfriendly"
18,5612,"one_slider",12,"Cameron",0.2,"successful","most successful","morphological","antonym","unsuccessful","person","male",0,"most unsuccessful","unsuccessful"
18,4116,"one_slider",13,"Maya",0.22,"beautiful","most beautiful","lexical","antonym","ugly","person","female",0,"most ugly","ugly"
18,3951,"one_slider",14,"Kathleen",0.2,"educated","most educated","morphological","antonym","uneducated","person","female",0,"most uneducated","uneducated"
18,4540,"one_slider",15,"William",0.69,"happy","happiest","morphological","neg_antonym","not unhappy","person","male",1,"unhappiest","unhappy"
18,3885,"one_slider",16,"Jennifer",0.19,"attractive","most attractive","morphological","neg_positive","not attractive","person","female",0,"most unattractive","unattractive"
19,22067,"one_slider",1,"Cameron",0.39,"successful","most successful","morphological","neg_positive","not successful","person","male",0,"most unsuccessful","unsuccessful"
19,7409,"one_slider",2,"Gabriel",0.32,"proud","most proud","lexical","antonym","humble","person","male",0,"most humble","humble"
19,4900,"one_slider",3,"Julia",0.86,"beautiful","most beautiful","lexical","positive","beautiful","person","female",0,"most ugly","ugly"
19,3905,"one_slider",4,"Laura",0.87,"honest","most honest","morphological","positive","honest","person","female",0,"most dishonest","dishonest"
19,3551,"one_slider",5,"Michelle",0.88,"hard-working","most hard-working","lexical","positive","hard-working","person","female",0,"most lazy","lazy"
19,2668,"one_slider",6,"Veronica",0.18,"friendly","most friendly","morphological","neg_positive","not friendly","person","female",0,"most unfriendly","unfriendly"
19,3544,"one_slider",7,"David",0.34,"brave","most brave","lexical","neg_positive","not brave","person","male",0,"most cowardly","cowardly"
19,4947,"one_slider",8,"Monica",0.46,"tall","tallest","lexical","neg_positive","not tall","person","female",1,"shortest","short"
19,3703,"one_slider",9,"Lucas",0.39,"educated","most educated","morphological","antonym","uneducated","person","male",0,"most uneducated","uneducated"
19,4772,"one_slider",10,"Sophia",0.65,"strong","strongest","lexical","neg_antonym","not weak","person","female",1,"weakest","weak"
19,3954,"one_slider",11,"Stephanie",0.37,"wise","most wise","lexical","antonym","foolish","person","female",0,"most foolish","foolish"
19,7472,"one_slider",12,"Alexander",0.62,"intelligent","most intelligent","morphological","neg_antonym","not unintelligent","person","male",0,"most unintelligent","unintelligent"
19,3100,"one_slider",13,"Alicia",0.6,"polite","most polite","morphological","neg_antonym","not impolite","person","female",0,"most impolite","impolite"
19,3481,"one_slider",14,"Claire",0.6,"loud","most loud","lexical","neg_antonym","not quiet","person","female",0,"most quiet","quiet"
19,3375,"one_slider",15,"Lee",0.78,"interesting","most interesting","morphological","positive","interesting","person","male",0,"most uninteresting","uninteresting"
19,4227,"one_slider",16,"John",0.26,"happy","happiest","morphological","antonym","unhappy","person","male",1,"unhappiest","unhappy"
20,9015,"one_slider",1,"Angela",0.31,"attractive","most attractive","morphological","antonym","unattractive","person","female",0,"most unattractive","unattractive"
20,3421,"one_slider",2,"Maya",0.25,"friendly","most friendly","morphological","antonym","unfriendly","person","female",0,"most unfriendly","unfriendly"
20,3031,"one_slider",3,"Veronica",0.14,"loud","most loud","lexical","antonym","quiet","person","female",0,"most quiet","quiet"
20,3711,"one_slider",4,"Cameron",0.59,"proud","most proud","lexical","positive","proud","person","male",0,"most humble","humble"
20,6552,"one_slider",5,"Michelle",0.62,"interesting","most interesting","morphological","neg_antonym","not uninteresting","person","female",0,"most uninteresting","uninteresting"
20,5262,"one_slider",6,"Kathleen",0.62,"hard-working","most hard-working","lexical","neg_antonym","not lazy","person","female",0,"most lazy","lazy"
20,5758,"one_slider",7,"Anthony",0.64,"fat","fattest","lexical","neg_antonym","not skinny","person","male",1,"skinniest","skinny"
20,3376,"one_slider",8,"Gabriel",0.22,"honest","most honest","morphological","neg_positive","not honest","person","male",0,"most dishonest","dishonest"
20,3903,"one_slider",9,"Greg",0.79,"mature","most mature","morphological","positive","mature","person","male",0,"most immature","immature"
20,5567,"one_slider",10,"Lee",0.43,"beautiful","most beautiful","lexical","neg_positive","not beautiful","person","male",0,"most ugly","ugly"
20,3838,"one_slider",11,"Alexander",0.23,"happy","happiest","morphological","neg_positive","not happy","person","male",1,"unhappiest","unhappy"
20,4230,"one_slider",12,"Julia",0.23,"tall","tallest","lexical","neg_positive","not tall","person","female",1,"shortest","short"
20,3030,"one_slider",13,"Kim",0.67,"brave","most brave","lexical","positive","brave","person","female",0,"most cowardly","cowardly"
20,4600,"one_slider",14,"John",0.7,"educated","most educated","morphological","positive","educated","person","male",0,"most uneducated","uneducated"
20,4221,"one_slider",15,"Stephen",0.16,"rich","richest","lexical","antonym","poor","person","male",1,"poorest","poor"
20,5871,"one_slider",16,"Jennifer",0.62,"polite","most polite","morphological","neg_antonym","not impolite","person","female",0,"most impolite","impolite"
21,7897,"one_slider",1,"Laura",0.46,"successful","most successful","morphological","neg_antonym","not unsuccessful","person","female",0,"most unsuccessful","unsuccessful"
21,3376,"one_slider",2,"William",0.5,"beautiful","most beautiful","lexical","antonym","ugly","person","male",0,"most ugly","ugly"
21,1857,"one_slider",3,"Claire",0.53,"brave","most brave","lexical","positive","brave","person","female",0,"most cowardly","cowardly"
21,1919,"one_slider",4,"John",0.52,"honest","most honest","morphological","neg_antonym","not dishonest","person","male",0,"most dishonest","dishonest"
21,5792,"one_slider",5,"Cameron",0.33,"intelligent","most intelligent","morphological","antonym","unintelligent","person","male",0,"most unintelligent","unintelligent"
21,6566,"one_slider",6,"Alicia",0.73,"proud","most proud","lexical","neg_antonym","not humble","person","female",0,"most humble","humble"
21,2720,"one_slider",7,"Stephanie",0.34,"educated","most educated","morphological","antonym","uneducated","person","female",0,"most uneducated","uneducated"
21,2119,"one_slider",8,"Sophia",0.28,"friendly","most friendly","morphological","neg_positive","not friendly","person","female",0,"most unfriendly","unfriendly"
21,2481,"one_slider",9,"Maya",0.67,"polite","most polite","morphological","positive","polite","person","female",0,"most impolite","impolite"
21,1966,"one_slider",10,"Michael",0.69,"mature","most mature","morphological","positive","mature","person","male",0,"most immature","immature"
21,1245,"one_slider",11,"Alexander",0.71,"strong","strongest","lexical","positive","strong","person","male",1,"weakest","weak"
21,2215,"one_slider",12,"Eric",0.22,"interesting","most interesting","morphological","neg_positive","not interesting","person","male",0,"most uninteresting","uninteresting"
21,2142,"one_slider",13,"David",0.49,"tall","tallest","lexical","neg_positive","not tall","person","male",1,"shortest","short"
21,2476,"one_slider",14,"Daniel",0.33,"hard-working","most hard-working","lexical","neg_positive","not hard-working","person","male",0,"most lazy","lazy"
21,2651,"one_slider",15,"Anthony",0.25,"loud","most loud","lexical","neg_antonym","not quiet","person","male",0,"most quiet","quiet"
21,2236,"one_slider",16,"Stephen",0.27,"rich","richest","lexical","antonym","poor","person","male",1,"poorest","poor"
22,8817,"one_slider",1,"Michael",0.64,"intelligent","most intelligent","morphological","positive","intelligent","person","male",0,"most unintelligent","unintelligent"
22,5602,"one_slider",2,"Sophia",0.55,"attractive","most attractive","morphological","positive","attractive","person","female",0,"most unattractive","unattractive"
22,5274,"one_slider",3,"Alicia",0.25,"tall","tallest","lexical","neg_positive","not tall","person","female",1,"shortest","short"
22,7224,"one_slider",4,"Eric",0.38,"mature","most mature","morphological","neg_positive","not mature","person","male",0,"most immature","immature"
22,5790,"one_slider",5,"Angela",0.33,"brave","most brave","lexical","antonym","cowardly","person","female",0,"most cowardly","cowardly"
22,3759,"one_slider",6,"Claire",0.38,"wise","most wise","lexical","antonym","foolish","person","female",0,"most foolish","foolish"
22,3158,"one_slider",7,"Kathleen",0.34,"strong","strongest","lexical","neg_positive","not strong","person","female",1,"weakest","weak"
22,6927,"one_slider",8,"Gabriel",0.64,"friendly","most friendly","morphological","neg_antonym","not unfriendly","person","male",0,"most unfriendly","unfriendly"
22,3543,"one_slider",9,"Tom",0.61,"rich","richest","lexical","neg_antonym","not poor","person","male",1,"poorest","poor"
22,3428,"one_slider",10,"Monica",0.65,"beautiful","most beautiful","lexical","positive","beautiful","person","female",0,"most ugly","ugly"
22,3454,"one_slider",11,"Cameron",0.36,"happy","happiest","morphological","antonym","unhappy","person","male",1,"unhappiest","unhappy"
22,2787,"one_slider",12,"Julia",0.67,"hard-working","most hard-working","lexical","positive","hard-working","person","female",0,"most lazy","lazy"
22,4105,"one_slider",13,"William",0.37,"polite","most polite","morphological","antonym","impolite","person","male",0,"most impolite","impolite"
22,4815,"one_slider",14,"Anthony",0.62,"interesting","most interesting","morphological","neg_antonym","not uninteresting","person","male",0,"most uninteresting","uninteresting"
22,3511,"one_slider",15,"Melinda",0.33,"successful","most successful","morphological","neg_positive","not successful","person","female",0,"most unsuccessful","unsuccessful"
22,3447,"one_slider",16,"Jennifer",0.67,"loud","most loud","lexical","neg_antonym","not quiet","person","female",0,"most quiet","quiet"
23,9375,"one_slider",1,"Alexander",0.29,"tall","tallest","lexical","neg_positive","not tall","person","male",1,"shortest","short"
23,12229,"one_slider",2,"Michelle",0.37,"rich","richest","lexical","neg_positive","not rich","person","female",1,"poorest","poor"
23,6322,"one_slider",3,"Tom",0.77,"strong","strongest","lexical","neg_antonym","not weak","person","male",1,"weakest","weak"
23,7156,"one_slider",4,"Sophia",0.54,"friendly","most friendly","morphological","neg_antonym","not unfriendly","person","female",0,"most unfriendly","unfriendly"
23,6712,"one_slider",5,"Michael",0.59,"brave","most brave","lexical","neg_antonym","not cowardly","person","male",0,"most cowardly","cowardly"
23,4321,"one_slider",6,"Angela",0.15,"interesting","most interesting","morphological","neg_positive","not interesting","person","female",0,"most uninteresting","uninteresting"
23,10142,"one_slider",7,"John",0.1,"educated","most educated","morphological","neg_positive","not educated","person","male",0,"most uneducated","uneducated"
23,6433,"one_slider",8,"Claire",0.08,"polite","most polite","morphological","antonym","impolite","person","female",0,"most impolite","impolite"
23,4138,"one_slider",9,"Greg",0.9,"proud","most proud","lexical","positive","proud","person","male",0,"most humble","humble"
23,3284,"one_slider",10,"Gabriel",0.89,"mature","most mature","morphological","positive","mature","person","male",0,"most immature","immature"
23,5155,"one_slider",11,"Cameron",0.82,"attractive","most attractive","morphological","positive","attractive","person","male",0,"most unattractive","unattractive"
23,4761,"one_slider",12,"Stephanie",0.06,"honest","most honest","morphological","antonym","dishonest","person","female",0,"most dishonest","dishonest"
23,3353,"one_slider",13,"Lucas",0.88,"loud","most loud","lexical","positive","loud","person","male",0,"most quiet","quiet"
23,3318,"one_slider",14,"Melinda",0.11,"fat","fattest","lexical","antonym","skinny","person","female",1,"skinniest","skinny"
23,3452,"one_slider",15,"Daniel",0.14,"hard-working","most hard-working","lexical","antonym","lazy","person","male",0,"most lazy","lazy"
23,7004,"one_slider",16,"David",0.5,"successful","most successful","morphological","neg_antonym","not unsuccessful","person","male",0,"most unsuccessful","unsuccessful"
24,19608,"one_slider",1,"Claire",0.34,"brave","most brave","lexical","antonym","cowardly","person","female",0,"most cowardly","cowardly"
24,9508,"one_slider",2,"Daniel",0.22,"educated","most educated","morphological","antonym","uneducated","person","male",0,"most uneducated","uneducated"
24,8506,"one_slider",3,"Stephen",0.74,"wise","most wise","lexical","positive","wise","person","male",0,"most foolish","foolish"
24,7098,"one_slider",4,"Stephanie",0.56,"friendly","most friendly","morphological","neg_antonym","not unfriendly","person","female",0,"most unfriendly","unfriendly"
24,6601,"one_slider",5,"Gabriel",0.27,"mature","most mature","morphological","neg_positive","not mature","person","male",0,"most immature","immature"
24,6849,"one_slider",6,"Alicia",0.18,"fat","fattest","lexical","antonym","skinny","person","female",1,"skinniest","skinny"
24,5440,"one_slider",7,"Laura",0.31,"interesting","most interesting","morphological","neg_positive","not interesting","person","female",0,"most uninteresting","uninteresting"
24,8443,"one_slider",8,"Maya",0.21,"tall","tallest","lexical","neg_positive","not tall","person","female",1,"shortest","short"
24,9751,"one_slider",9,"Angela",0.58,"attractive","most attractive","morphological","neg_antonym","not unattractive","person","female",0,"most unattractive","unattractive"
24,5783,"one_slider",10,"Veronica",0.24,"honest","most honest","morphological","antonym","dishonest","person","female",0,"most dishonest","dishonest"
24,4147,"one_slider",11,"Michael",0.76,"loud","most loud","lexical","positive","loud","person","male",0,"most quiet","quiet"
24,5712,"one_slider",12,"William",0.76,"hard-working","most hard-working","lexical","neg_antonym","not lazy","person","male",0,"most lazy","lazy"
24,6995,"one_slider",13,"Kathleen",0.75,"polite","most polite","morphological","positive","polite","person","female",0,"most impolite","impolite"
24,10193,"one_slider",14,"Cameron",0.26,"rich","richest","lexical","neg_positive","not rich","person","male",1,"poorest","poor"
24,7800,"one_slider",15,"Monica",0.61,"beautiful","most beautiful","lexical","neg_antonym","not ugly","person","female",0,"most ugly","ugly"
24,5432,"one_slider",16,"John",0.79,"happy","happiest","morphological","positive","happy","person","male",1,"unhappiest","unhappy"
25,23771,"one_slider",1,"Lee",0.11,"polite","most polite","morphological","neg_positive","not polite","person","male",0,"most impolite","impolite"
25,30860,"one_slider",2,"Tom",0.69,"tall","tallest","lexical","neg_antonym","not short","person","male",1,"shortest","short"
25,31015,"one_slider",3,"Lucas",0.13,"intelligent","most intelligent","morphological","antonym","unintelligent","person","male",0,"most unintelligent","unintelligent"
25,23928,"one_slider",4,"Claire",0.71,"rich","richest","lexical","positive","rich","person","female",1,"poorest","poor"
25,38512,"one_slider",5,"Julia",0.39,"beautiful","most beautiful","lexical","neg_positive","not beautiful","person","female",0,"most ugly","ugly"
25,29697,"one_slider",6,"Kathleen",0.8,"interesting","most interesting","morphological","neg_antonym","not uninteresting","person","female",0,"most uninteresting","uninteresting"
25,48935,"one_slider",7,"John",0.09,"hard-working","most hard-working","lexical","antonym","lazy","person","male",0,"most lazy","lazy"
25,45952,"one_slider",8,"Sophia",0.9,"mature","most mature","morphological","neg_antonym","not immature","person","female",0,"most immature","immature"
25,47952,"one_slider",9,"Daniel",0.07,"honest","most honest","morphological","antonym","dishonest","person","male",0,"most dishonest","dishonest"
25,21501,"one_slider",10,"Stephanie",0.1,"strong","strongest","lexical","neg_positive","not strong","person","female",1,"weakest","weak"
25,59633,"one_slider",11,"Greg",0.91,"loud","most loud","lexical","neg_antonym","not quiet","person","male",0,"most quiet","quiet"
25,58247,"one_slider",12,"William",0.83,"educated","most educated","morphological","positive","educated","person","male",0,"most uneducated","uneducated"
25,35264,"one_slider",13,"Monica",0.75,"successful","most successful","morphological","positive","successful","person","female",0,"most unsuccessful","unsuccessful"
25,26112,"one_slider",14,"Maya",0.09,"fat","fattest","lexical","antonym","skinny","person","female",1,"skinniest","skinny"
25,16497,"one_slider",15,"Alicia",0.74,"brave","most brave","lexical","positive","brave","person","female",0,"most cowardly","cowardly"
25,55743,"one_slider",16,"Angela",0.05,"happy","happiest","morphological","neg_positive","not happy","person","female",1,"unhappiest","unhappy"
26,10658,"one_slider",1,"Julia",0.49,"successful","most successful","morphological","neg_antonym","not unsuccessful","person","female",0,"most unsuccessful","unsuccessful"
26,4860,"one_slider",2,"Daniel",0.58,"strong","strongest","lexical","positive","strong","person","male",1,"weakest","weak"
26,8107,"one_slider",3,"Michael",0.82,"proud","most proud","lexical","neg_antonym","not humble","person","male",0,"most humble","humble"
26,4366,"one_slider",4,"Alicia",0.79,"honest","most honest","morphological","positive","honest","person","female",0,"most dishonest","dishonest"
26,4143,"one_slider",5,"Alexander",0.27,"brave","most brave","lexical","neg_positive","not brave","person","male",0,"most cowardly","cowardly"
26,3800,"one_slider",6,"Gabriel",0.15,"polite","most polite","morphological","neg_positive","not polite","person","male",0,"most impolite","impolite"
26,4091,"one_slider",7,"Monica",0.83,"friendly","most friendly","morphological","positive","friendly","person","female",0,"most unfriendly","unfriendly"
26,5001,"one_slider",8,"Melinda",0.64,"happy","happiest","morphological","neg_antonym","not unhappy","person","female",1,"unhappiest","unhappy"
26,4021,"one_slider",9,"Lucas",0.21,"attractive","most attractive","morphological","antonym","unattractive","person","male",0,"most unattractive","unattractive"
26,3758,"one_slider",10,"Veronica",0.2,"mature","most mature","morphological","neg_positive","not mature","person","female",0,"most immature","immature"
26,3382,"one_slider",11,"Stephanie",0.19,"educated","most educated","morphological","antonym","uneducated","person","female",0,"most uneducated","uneducated"
26,3735,"one_slider",12,"Anthony",0.91,"hard-working","most hard-working","lexical","positive","hard-working","person","male",0,"most lazy","lazy"
26,2979,"one_slider",13,"Sophia",0.26,"tall","tallest","lexical","antonym","short","person","female",1,"shortest","short"
26,5584,"one_slider",14,"Tom",0.7,"wise","most wise","lexical","neg_antonym","not foolish","person","male",0,"most foolish","foolish"
26,3068,"one_slider",15,"Angela",0.23,"rich","richest","lexical","neg_positive","not rich","person","female",1,"poorest","poor"
26,3314,"one_slider",16,"John",0.25,"loud","most loud","lexical","antonym","quiet","person","male",0,"most quiet","quiet"
27,5405,"one_slider",1,"Stephen",0,"beautiful","most beautiful","lexical","neg_positive","not beautiful","person","male",0,"most ugly","ugly"
27,3640,"one_slider",2,"Alicia",1,"wise","most wise","lexical","neg_antonym","not foolish","person","female",0,"most foolish","foolish"
27,2886,"one_slider",3,"Alexander",0,"mature","most mature","morphological","neg_positive","not mature","person","male",0,"most immature","immature"
27,4544,"one_slider",4,"Melinda",0,"interesting","most interesting","morphological","antonym","uninteresting","person","female",0,"most uninteresting","uninteresting"
27,5044,"one_slider",5,"Tom",0,"intelligent","most intelligent","morphological","neg_antonym","not unintelligent","person","male",0,"most unintelligent","unintelligent"
27,6898,"one_slider",6,"Laura",0,"educated","most educated","morphological","antonym","uneducated","person","female",0,"most uneducated","uneducated"
27,4794,"one_slider",7,"Cameron",0,"hard-working","most hard-working","lexical","antonym","lazy","person","male",0,"most lazy","lazy"
27,3990,"one_slider",8,"Anthony",0,"friendly","most friendly","morphological","neg_positive","not friendly","person","male",0,"most unfriendly","unfriendly"
27,12968,"one_slider",9,"Michael",1,"strong","strongest","lexical","positive","strong","person","male",1,"weakest","weak"
27,3397,"one_slider",10,"Claire",0,"tall","tallest","lexical","neg_positive","not tall","person","female",1,"shortest","short"
27,2861,"one_slider",11,"Michelle",0,"loud","most loud","lexical","antonym","quiet","person","female",0,"most quiet","quiet"
27,3686,"one_slider",12,"Greg",1,"proud","most proud","lexical","neg_antonym","not humble","person","male",0,"most humble","humble"
27,1717,"one_slider",13,"William",1,"happy","happiest","morphological","positive","happy","person","male",1,"unhappiest","unhappy"
27,1818,"one_slider",14,"Lucas",1,"rich","richest","lexical","positive","rich","person","male",1,"poorest","poor"
27,7215,"one_slider",15,"Monica",1,"attractive","most attractive","morphological","neg_antonym","not unattractive","person","female",0,"most unattractive","unattractive"
27,2006,"one_slider",16,"Jennifer",1,"successful","most successful","morphological","positive","successful","person","female",0,"most unsuccessful","unsuccessful"
28,9870,"one_slider",1,"David",0.25,"friendly","most friendly","morphological","antonym","unfriendly","person","male",0,"most unfriendly","unfriendly"
28,5455,"one_slider",2,"Gabriel",0.81,"loud","most loud","lexical","neg_antonym","not quiet","person","male",0,"most quiet","quiet"
28,6104,"one_slider",3,"Angela",0.21,"intelligent","most intelligent","morphological","neg_positive","not intelligent","person","female",0,"most unintelligent","unintelligent"
28,4872,"one_slider",4,"Julia",0.14,"interesting","most interesting","morphological","neg_positive","not interesting","person","female",0,"most uninteresting","uninteresting"
28,9230,"one_slider",5,"Alicia",0.59,"fat","fattest","lexical","neg_antonym","not skinny","person","female",1,"skinniest","skinny"
28,5264,"one_slider",6,"Anthony",0.76,"mature","most mature","morphological","positive","mature","person","male",0,"most immature","immature"
28,4872,"one_slider",7,"Tom",0.3,"strong","strongest","lexical","antonym","weak","person","male",1,"weakest","weak"
28,10363,"one_slider",8,"Stephanie",0.75,"polite","most polite","morphological","positive","polite","person","female",0,"most impolite","impolite"
28,8241,"one_slider",9,"Cameron",0.72,"successful","most successful","morphological","neg_antonym","not unsuccessful","person","male",0,"most unsuccessful","unsuccessful"
28,3850,"one_slider",10,"Maya",0.67,"hard-working","most hard-working","lexical","positive","hard-working","person","female",0,"most lazy","lazy"
28,3388,"one_slider",11,"Veronica",0.22,"wise","most wise","lexical","neg_positive","not wise","person","female",0,"most foolish","foolish"
28,2812,"one_slider",12,"Michael",0.27,"rich","richest","lexical","neg_positive","not rich","person","male",1,"poorest","poor"
28,3552,"one_slider",13,"Lee",0.2,"beautiful","most beautiful","lexical","antonym","ugly","person","male",0,"most ugly","ugly"
28,12022,"one_slider",14,"Jennifer",0.29,"attractive","most attractive","morphological","antonym","unattractive","person","female",0,"most unattractive","unattractive"
28,9695,"one_slider",15,"Melinda",0.68,"educated","most educated","morphological","neg_antonym","not uneducated","person","female",0,"most uneducated","uneducated"
28,4391,"one_slider",16,"Kathleen",0.73,"proud","most proud","lexical","positive","proud","person","female",0,"most humble","humble"
29,9564,"one_slider",1,"Daniel",0.76,"polite","most polite","morphological","positive","polite","person","male",0,"most impolite","impolite"
29,5701,"one_slider",2,"Stephanie",0.23,"rich","richest","lexical","neg_positive","not rich","person","female",1,"poorest","poor"
29,4437,"one_slider",3,"Monica",0.21,"hard-working","most hard-working","lexical","neg_positive","not hard-working","person","female",0,"most lazy","lazy"
29,4044,"one_slider",4,"Alicia",0.2,"loud","most loud","lexical","antonym","quiet","person","female",0,"most quiet","quiet"
29,4592,"one_slider",5,"Lucas",0.18,"happy","happiest","morphological","neg_positive","not happy","person","male",1,"unhappiest","unhappy"
29,3635,"one_slider",6,"Melinda",0.16,"friendly","most friendly","morphological","neg_positive","not friendly","person","female",0,"most unfriendly","unfriendly"
29,4042,"one_slider",7,"Alexander",0.15,"interesting","most interesting","morphological","antonym","uninteresting","person","male",0,"most uninteresting","uninteresting"
29,3826,"one_slider",8,"Jennifer",0.16,"mature","most mature","morphological","antonym","immature","person","female",0,"most immature","immature"
29,6429,"one_slider",9,"David",0.77,"wise","most wise","lexical","positive","wise","person","male",0,"most foolish","foolish"
29,6375,"one_slider",10,"Cameron",0.6,"educated","most educated","morphological","neg_antonym","not uneducated","person","male",0,"most uneducated","uneducated"
29,5740,"one_slider",11,"Gabriel",0.53,"brave","most brave","lexical","neg_antonym","not cowardly","person","male",0,"most cowardly","cowardly"
29,4235,"one_slider",12,"Angela",0.14,"fat","fattest","lexical","antonym","skinny","person","female",1,"skinniest","skinny"
29,4973,"one_slider",13,"Julia",0.63,"strong","strongest","lexical","neg_antonym","not weak","person","female",1,"weakest","weak"
29,4809,"one_slider",14,"Claire",0.54,"successful","most successful","morphological","neg_antonym","not unsuccessful","person","female",0,"most unsuccessful","unsuccessful"
29,4042,"one_slider",15,"Laura",0.76,"intelligent","most intelligent","morphological","positive","intelligent","person","female",0,"most unintelligent","unintelligent"
29,3596,"one_slider",16,"Stephen",0.82,"tall","tallest","lexical","positive","tall","person","male",1,"shortest","short"
30,10406,"one_slider",1,"Eric",0.74,"proud","most proud","lexical","positive","proud","person","male",0,"most humble","humble"
30,7216,"one_slider",2,"Gabriel",0.17,"beautiful","most beautiful","lexical","antonym","ugly","person","male",0,"most ugly","ugly"
30,4702,"one_slider",3,"Kim",0.89,"happy","happiest","morphological","positive","happy","person","female",1,"unhappiest","unhappy"
30,7791,"one_slider",4,"Sophia",0.61,"intelligent","most intelligent","morphological","neg_antonym","not unintelligent","person","female",0,"most unintelligent","unintelligent"
30,7366,"one_slider",5,"Tom",0.07,"hard-working","most hard-working","lexical","neg_positive","not hard-working","person","male",0,"most lazy","lazy"
30,6121,"one_slider",6,"Julia",0.18,"educated","most educated","morphological","antonym","uneducated","person","female",0,"most uneducated","uneducated"
30,8847,"one_slider",7,"John",0.34,"interesting","most interesting","morphological","antonym","uninteresting","person","male",0,"most uninteresting","uninteresting"
30,7104,"one_slider",8,"Cameron",0.12,"friendly","most friendly","morphological","neg_positive","not friendly","person","male",0,"most unfriendly","unfriendly"
30,3248,"one_slider",9,"Lucas",0.84,"strong","strongest","lexical","neg_antonym","not weak","person","male",1,"weakest","weak"
30,4103,"one_slider",10,"David",0.95,"loud","most loud","lexical","neg_antonym","not quiet","person","male",0,"most quiet","quiet"
30,9143,"one_slider",11,"Maya",0.04,"attractive","most attractive","morphological","neg_positive","not attractive","person","female",0,"most unattractive","unattractive"
30,6975,"one_slider",12,"Monica",0.96,"mature","most mature","morphological","neg_antonym","not immature","person","female",0,"most immature","immature"
30,7743,"one_slider",13,"Greg",1,"honest","most honest","morphological","positive","honest","person","male",0,"most dishonest","dishonest"
30,5903,"one_slider",14,"Veronica",0.69,"tall","tallest","lexical","positive","tall","person","female",1,"shortest","short"
30,4471,"one_slider",15,"Kathleen",0.02,"brave","most brave","lexical","antonym","cowardly","person","female",0,"most cowardly","cowardly"
30,5489,"one_slider",16,"Alicia",0.11,"wise","most wise","lexical","neg_positive","not wise","person","female",0,"most foolish","foolish"
31,10449,"one_slider",1,"Kathleen",0.32,"honest","most honest","morphological","antonym","dishonest","person","female",0,"most dishonest","dishonest"
31,14876,"one_slider",2,"Daniel",0.53,"fat","fattest","lexical","neg_antonym","not skinny","person","male",1,"skinniest","skinny"
31,9386,"one_slider",3,"Greg",0.49,"successful","most successful","morphological","neg_antonym","not unsuccessful","person","male",0,"most unsuccessful","unsuccessful"
31,5282,"one_slider",4,"Lee",0.7,"loud","most loud","lexical","positive","loud","person","male",0,"most quiet","quiet"
31,6051,"one_slider",5,"Jennifer",0.35,"intelligent","most intelligent","morphological","neg_positive","not intelligent","person","female",0,"most unintelligent","unintelligent"
31,21723,"one_slider",6,"Claire",0.53,"friendly","most friendly","morphological","neg_antonym","not unfriendly","person","female",0,"most unfriendly","unfriendly"
31,4809,"one_slider",7,"Monica",0.43,"beautiful","most beautiful","lexical","neg_positive","not beautiful","person","female",0,"most ugly","ugly"
31,8899,"one_slider",8,"Melinda",0.24,"brave","most brave","lexical","antonym","cowardly","person","female",0,"most cowardly","cowardly"
31,16035,"one_slider",9,"Stephanie",0.46,"tall","tallest","lexical","neg_positive","not tall","person","female",1,"shortest","short"
31,6500,"one_slider",10,"David",0.3,"educated","most educated","morphological","neg_positive","not educated","person","male",0,"most uneducated","uneducated"
31,8846,"one_slider",11,"Eric",0.72,"proud","most proud","lexical","neg_antonym","not humble","person","male",0,"most humble","humble"
31,3400,"one_slider",12,"Laura",0.69,"attractive","most attractive","morphological","positive","attractive","person","female",0,"most unattractive","unattractive"
31,3768,"one_slider",13,"Lucas",0.18,"strong","strongest","lexical","antonym","weak","person","male",1,"weakest","weak"
31,5048,"one_slider",14,"Alexander",0.64,"interesting","most interesting","morphological","positive","interesting","person","male",0,"most uninteresting","uninteresting"
31,4005,"one_slider",15,"Stephen",0.21,"happy","happiest","morphological","antonym","unhappy","person","male",1,"unhappiest","unhappy"
31,3983,"one_slider",16,"Veronica",0.72,"hard-working","most hard-working","lexical","positive","hard-working","person","female",0,"most lazy","lazy"
32,10877,"one_slider",1,"Cameron",0.3,"interesting","most interesting","morphological","antonym","uninteresting","person","male",0,"most uninteresting","uninteresting"
32,5935,"one_slider",2,"Greg",0.48,"brave","most brave","lexical","positive","brave","person","male",0,"most cowardly","cowardly"
32,5687,"one_slider",3,"Tom",0.55,"happy","happiest","morphological","positive","happy","person","male",1,"unhappiest","unhappy"
32,4160,"one_slider",4,"Stephanie",0.26,"rich","richest","lexical","antonym","poor","person","female",1,"poorest","poor"
32,7119,"one_slider",5,"Julia",0.44,"attractive","most attractive","morphological","neg_antonym","not unattractive","person","female",0,"most unattractive","unattractive"
32,5063,"one_slider",6,"William",0.36,"loud","most loud","lexical","neg_positive","not loud","person","male",0,"most quiet","quiet"
32,3623,"one_slider",7,"Kathleen",0.25,"friendly","most friendly","morphological","antonym","unfriendly","person","female",0,"most unfriendly","unfriendly"
32,5015,"one_slider",8,"Claire",0.74,"beautiful","most beautiful","lexical","neg_antonym","not ugly","person","female",0,"most ugly","ugly"
32,6536,"one_slider",9,"Michelle",0.16,"fat","fattest","lexical","antonym","skinny","person","female",1,"skinniest","skinny"
32,4688,"one_slider",10,"Lucas",0.17,"wise","most wise","lexical","neg_positive","not wise","person","male",0,"most foolish","foolish"
32,5592,"one_slider",11,"Melinda",0.75,"hard-working","most hard-working","lexical","neg_antonym","not lazy","person","female",0,"most lazy","lazy"
32,3759,"one_slider",12,"Anthony",0.61,"strong","strongest","lexical","positive","strong","person","male",1,"weakest","weak"
32,3375,"one_slider",13,"David",0.22,"educated","most educated","morphological","neg_positive","not educated","person","male",0,"most uneducated","uneducated"
32,3975,"one_slider",14,"Kim",0.67,"mature","most mature","morphological","positive","mature","person","female",0,"most immature","immature"
32,4815,"one_slider",15,"Michael",0.25,"polite","most polite","morphological","neg_antonym","not impolite","person","male",0,"most impolite","impolite"
32,3680,"one_slider",16,"Jennifer",0.23,"intelligent","most intelligent","morphological","neg_positive","not intelligent","person","female",0,"most unintelligent","unintelligent"
33,13955,"one_slider",1,"Claire",0.2,"intelligent","most intelligent","morphological","neg_positive","not intelligent","person","female",0,"most unintelligent","unintelligent"
33,8828,"one_slider",2,"Stephen",0.48,"fat","fattest","lexical","neg_positive","not fat","person","male",1,"skinniest","skinny"
33,4846,"one_slider",3,"Maya",0.73,"hard-working","most hard-working","lexical","neg_antonym","not lazy","person","female",0,"most lazy","lazy"
33,5390,"one_slider",4,"Laura",0.33,"tall","tallest","lexical","neg_positive","not tall","person","female",1,"shortest","short"
33,5055,"one_slider",5,"Jennifer",0.55,"friendly","most friendly","morphological","positive","friendly","person","female",0,"most unfriendly","unfriendly"
33,4758,"one_slider",6,"Gabriel",0.31,"attractive","most attractive","morphological","neg_positive","not attractive","person","male",0,"most unattractive","unattractive"
33,8623,"one_slider",7,"Julia",0.36,"loud","most loud","lexical","antonym","quiet","person","female",0,"most quiet","quiet"
33,4071,"one_slider",8,"Lucas",0.74,"rich","richest","lexical","positive","rich","person","male",1,"poorest","poor"
33,3622,"one_slider",9,"John",0.54,"educated","most educated","morphological","positive","educated","person","male",0,"most uneducated","uneducated"
33,3229,"one_slider",10,"Daniel",0.29,"honest","most honest","morphological","antonym","dishonest","person","male",0,"most dishonest","dishonest"
33,2591,"one_slider",11,"Stephanie",0.59,"beautiful","most beautiful","lexical","positive","beautiful","person","female",0,"most ugly","ugly"
33,6765,"one_slider",12,"Greg",0.53,"interesting","most interesting","morphological","neg_antonym","not uninteresting","person","male",0,"most uninteresting","uninteresting"
33,8124,"one_slider",13,"Veronica",0.54,"polite","most polite","morphological","neg_antonym","not impolite","person","female",0,"most impolite","impolite"
33,5022,"one_slider",14,"Angela",0.33,"happy","happiest","morphological","antonym","unhappy","person","female",1,"unhappiest","unhappy"
33,2567,"one_slider",15,"Tom",0.32,"strong","strongest","lexical","antonym","weak","person","male",1,"weakest","weak"
33,4072,"one_slider",16,"Monica",0.73,"proud","most proud","lexical","neg_antonym","not humble","person","female",0,"most humble","humble"
34,22397,"one_slider",1,"David",0.22,"successful","most successful","morphological","antonym","unsuccessful","person","male",0,"most unsuccessful","unsuccessful"
34,3512,"one_slider",2,"Lucas",0.5,"fat","fattest","lexical","neg_positive","not fat","person","male",1,"skinniest","skinny"
34,1912,"one_slider",3,"Laura",0.77,"tall","tallest","lexical","positive","tall","person","female",1,"shortest","short"
34,4664,"one_slider",4,"Alexander",0.3,"proud","most proud","lexical","antonym","humble","person","male",0,"most humble","humble"
34,3497,"one_slider",5,"Lee",0.5,"mature","most mature","morphological","neg_antonym","not immature","person","male",0,"most immature","immature"
34,1880,"one_slider",6,"Julia",0.5,"brave","most brave","lexical","neg_positive","not brave","person","female",0,"most cowardly","cowardly"
34,3264,"one_slider",7,"Kathleen",0.49,"intelligent","most intelligent","morphological","neg_antonym","not unintelligent","person","female",0,"most unintelligent","unintelligent"
34,2520,"one_slider",8,"Monica",0.27,"loud","most loud","lexical","antonym","quiet","person","female",0,"most quiet","quiet"
34,2719,"one_slider",9,"Kim",0.8,"hard-working","most hard-working","lexical","positive","hard-working","person","female",0,"most lazy","lazy"
34,4135,"one_slider",10,"Gabriel",0.18,"attractive","most attractive","morphological","antonym","unattractive","person","male",0,"most unattractive","unattractive"
34,2512,"one_slider",11,"Maya",0.7,"educated","most educated","morphological","positive","educated","person","female",0,"most uneducated","uneducated"
34,2039,"one_slider",12,"Michael",0.77,"honest","most honest","morphological","positive","honest","person","male",0,"most dishonest","dishonest"
34,2695,"one_slider",13,"Cameron",0.51,"strong","strongest","lexical","neg_antonym","not weak","person","male",1,"weakest","weak"
34,2273,"one_slider",14,"Alicia",0.49,"happy","happiest","morphological","neg_positive","not happy","person","female",1,"unhappiest","unhappy"
34,4407,"one_slider",15,"Anthony",0.5,"wise","most wise","lexical","neg_antonym","not foolish","person","male",0,"most foolish","foolish"
34,1911,"one_slider",16,"Jennifer",0.48,"friendly","most friendly","morphological","neg_positive","not friendly","person","female",0,"most unfriendly","unfriendly"
35,12584,"one_slider",1,"Maya",0.32,"strong","strongest","lexical","antonym","weak","person","female",1,"weakest","weak"
35,17245,"one_slider",2,"Tom",0.62,"successful","most successful","morphological","neg_antonym","not unsuccessful","person","male",0,"most unsuccessful","unsuccessful"
35,4775,"one_slider",3,"Jennifer",0.66,"tall","tallest","lexical","positive","tall","person","female",1,"shortest","short"
35,6975,"one_slider",4,"William",0.38,"proud","most proud","lexical","neg_positive","not proud","person","male",0,"most humble","humble"
35,8232,"one_slider",5,"Michael",0.51,"beautiful","most beautiful","lexical","neg_positive","not beautiful","person","male",0,"most ugly","ugly"
35,4824,"one_slider",6,"Gabriel",0.72,"intelligent","most intelligent","morphological","positive","intelligent","person","male",0,"most unintelligent","unintelligent"
35,10191,"one_slider",7,"Stephen",0.26,"interesting","most interesting","morphological","neg_positive","not interesting","person","male",0,"most uninteresting","uninteresting"
35,33297,"one_slider",8,"Lee",0.5,"rich","richest","lexical","neg_antonym","not poor","person","male",1,"poorest","poor"
35,4439,"one_slider",9,"Greg",0.28,"honest","most honest","morphological","neg_positive","not honest","person","male",0,"most dishonest","dishonest"
35,3232,"one_slider",10,"Stephanie",0.68,"attractive","most attractive","morphological","positive","attractive","person","female",0,"most unattractive","unattractive"
35,3759,"one_slider",11,"Laura",0.19,"happy","happiest","morphological","antonym","unhappy","person","female",1,"unhappiest","unhappy"
35,4576,"one_slider",12,"Veronica",0.74,"hard-working","most hard-working","lexical","positive","hard-working","person","female",0,"most lazy","lazy"
35,6536,"one_slider",13,"Monica",0.57,"polite","most polite","morphological","neg_antonym","not impolite","person","female",0,"most impolite","impolite"
35,4007,"one_slider",14,"Eric",0.2,"mature","most mature","morphological","antonym","immature","person","male",0,"most immature","immature"
35,6624,"one_slider",15,"Lucas",0.78,"loud","most loud","lexical","neg_antonym","not quiet","person","male",0,"most quiet","quiet"
35,4687,"one_slider",16,"John",0.17,"wise","most wise","lexical","antonym","foolish","person","male",0,"most foolish","foolish"
36,12314,"one_slider",1,"John",0.5,"fat","fattest","lexical","neg_antonym","not skinny","person","male",1,"skinniest","skinny"
36,4555,"one_slider",2,"Maya",0.23,"rich","richest","lexical","antonym","poor","person","female",1,"poorest","poor"
36,2578,"one_slider",3,"Greg",0.2,"mature","most mature","morphological","antonym","immature","person","male",0,"most immature","immature"
36,6092,"one_slider",4,"Sophia",0.75,"polite","most polite","morphological","neg_antonym","not impolite","person","female",0,"most impolite","impolite"
36,2695,"one_slider",5,"William",0.1,"educated","most educated","morphological","antonym","uneducated","person","male",0,"most uneducated","uneducated"
36,10227,"one_slider",6,"Alexander",0.87,"intelligent","most intelligent","morphological","positive","intelligent","person","male",0,"most unintelligent","unintelligent"
36,2759,"one_slider",7,"Veronica",0.18,"wise","most wise","lexical","neg_positive","not wise","person","female",0,"most foolish","foolish"
36,4221,"one_slider",8,"David",0.55,"interesting","most interesting","morphological","neg_antonym","not uninteresting","person","male",0,"most uninteresting","uninteresting"
36,2854,"one_slider",9,"Monica",0.24,"brave","most brave","lexical","neg_positive","not brave","person","female",0,"most cowardly","cowardly"
36,2319,"one_slider",10,"Michael",0.22,"honest","most honest","morphological","neg_positive","not honest","person","male",0,"most dishonest","dishonest"
36,4181,"one_slider",11,"Kim",0.93,"loud","most loud","lexical","neg_antonym","not quiet","person","female",0,"most quiet","quiet"
36,3043,"one_slider",12,"Kathleen",0.83,"hard-working","most hard-working","lexical","positive","hard-working","person","female",0,"most lazy","lazy"
36,2350,"one_slider",13,"Eric",0.19,"attractive","most attractive","morphological","neg_positive","not attractive","person","male",0,"most unattractive","unattractive"
36,4063,"one_slider",14,"Lee",0.8,"friendly","most friendly","morphological","positive","friendly","person","male",0,"most unfriendly","unfriendly"
36,2756,"one_slider",15,"Stephen",0.9,"tall","tallest","lexical","positive","tall","person","male",1,"shortest","short"
36,3134,"one_slider",16,"Stephanie",0.1,"strong","strongest","lexical","antonym","weak","person","female",1,"weakest","weak"
37,10007,"one_slider",1,"Jennifer",0.67,"mature","most mature","morphological","neg_antonym","not immature","person","female",0,"most immature","immature"
37,9655,"one_slider",2,"Claire",0.83,"loud","most loud","lexical","neg_antonym","not quiet","person","female",0,"most quiet","quiet"
37,4888,"one_slider",3,"Melinda",0.06,"brave","most brave","lexical","antonym","cowardly","person","female",0,"most cowardly","cowardly"
37,4471,"one_slider",4,"Julia",0.83,"polite","most polite","morphological","positive","polite","person","female",0,"most impolite","impolite"
37,8312,"one_slider",5,"Michael",0.27,"happy","happiest","morphological","neg_positive","not happy","person","male",1,"unhappiest","unhappy"
37,5728,"one_slider",6,"Greg",0.22,"attractive","most attractive","morphological","antonym","unattractive","person","male",0,"most unattractive","unattractive"
37,4727,"one_slider",7,"Eric",0.21,"educated","most educated","morphological","neg_positive","not educated","person","male",0,"most uneducated","uneducated"
37,6607,"one_slider",8,"Alexander",0.73,"interesting","most interesting","morphological","positive","interesting","person","male",0,"most uninteresting","uninteresting"
37,7135,"one_slider",9,"Maya",0.84,"proud","most proud","lexical","neg_antonym","not humble","person","female",0,"most humble","humble"
37,4815,"one_slider",10,"Kathleen",0.92,"beautiful","most beautiful","lexical","positive","beautiful","person","female",0,"most ugly","ugly"
37,5767,"one_slider",11,"Lucas",0.36,"tall","tallest","lexical","neg_positive","not tall","person","male",1,"shortest","short"
37,6768,"one_slider",12,"Monica",0.18,"successful","most successful","morphological","antonym","unsuccessful","person","female",0,"most unsuccessful","unsuccessful"
37,4208,"one_slider",13,"William",0.81,"rich","richest","lexical","positive","rich","person","male",1,"poorest","poor"
37,5496,"one_slider",14,"Kim",0.39,"wise","most wise","lexical","neg_positive","not wise","person","female",0,"most foolish","foolish"
37,7231,"one_slider",15,"Stephanie",0.55,"intelligent","most intelligent","morphological","neg_antonym","not unintelligent","person","female",0,"most unintelligent","unintelligent"
37,4991,"one_slider",16,"Tom",0.16,"hard-working","most hard-working","lexical","antonym","lazy","person","male",0,"most lazy","lazy"
38,6151,"one_slider",1,"Sophia",0.97,"proud","most proud","lexical","neg_antonym","not humble","person","female",0,"most humble","humble"
38,2894,"one_slider",2,"Laura",0.2,"happy","happiest","morphological","antonym","unhappy","person","female",1,"unhappiest","unhappy"
38,2814,"one_slider",3,"David",0.15,"tall","tallest","lexical","neg_positive","not tall","person","male",1,"shortest","short"
38,2506,"one_slider",4,"Lucas",0.84,"polite","most polite","morphological","positive","polite","person","male",0,"most impolite","impolite"
38,2322,"one_slider",5,"Claire",0.67,"interesting","most interesting","morphological","positive","interesting","person","female",0,"most uninteresting","uninteresting"
38,3534,"one_slider",6,"Tom",0.52,"rich","richest","lexical","neg_antonym","not poor","person","male",1,"poorest","poor"
38,2377,"one_slider",7,"Gabriel",0.31,"mature","most mature","morphological","neg_positive","not mature","person","male",0,"most immature","immature"
38,5299,"one_slider",8,"Julia",0.67,"successful","most successful","morphological","neg_antonym","not unsuccessful","person","female",0,"most unsuccessful","unsuccessful"
38,3835,"one_slider",9,"Alexander",0.07,"attractive","most attractive","morphological","neg_positive","not attractive","person","male",0,"most unattractive","unattractive"
38,3953,"one_slider",10,"Jennifer",0.77,"friendly","most friendly","morphological","neg_antonym","not unfriendly","person","female",0,"most unfriendly","unfriendly"
38,2702,"one_slider",11,"Lee",0.75,"hard-working","most hard-working","lexical","positive","hard-working","person","male",0,"most lazy","lazy"
38,2789,"one_slider",12,"Eric",0.26,"brave","most brave","lexical","antonym","cowardly","person","male",0,"most cowardly","cowardly"
38,2205,"one_slider",13,"Greg",0.04,"intelligent","most intelligent","morphological","antonym","unintelligent","person","male",0,"most unintelligent","unintelligent"
38,2323,"one_slider",14,"Kim",0.03,"fat","fattest","lexical","antonym","skinny","person","female",1,"skinniest","skinny"
38,2561,"one_slider",15,"Michael",0.95,"wise","most wise","lexical","positive","wise","person","male",0,"most foolish","foolish"
38,2553,"one_slider",16,"Michelle",0.37,"strong","strongest","lexical","neg_positive","not strong","person","female",1,"weakest","weak"
39,19614,"one_slider",1,"John",0.26,"hard-working","most hard-working","lexical","antonym","lazy","person","male",0,"most lazy","lazy"
39,8861,"one_slider",2,"Anthony",0.25,"honest","most honest","morphological","neg_positive","not honest","person","male",0,"most dishonest","dishonest"
39,8766,"one_slider",3,"Lucas",0.51,"beautiful","most beautiful","lexical","neg_antonym","not ugly","person","male",0,"most ugly","ugly"
39,7206,"one_slider",4,"Tom",0.24,"interesting","most interesting","morphological","antonym","uninteresting","person","male",0,"most uninteresting","uninteresting"
39,9694,"one_slider",5,"Gabriel",0.48,"polite","most polite","morphological","neg_antonym","not impolite","person","male",0,"most impolite","impolite"
39,10458,"one_slider",6,"Stephanie",0.19,"educated","most educated","morphological","neg_positive","not educated","person","female",0,"most uneducated","uneducated"
39,7517,"one_slider",7,"Alexander",0.77,"successful","most successful","morphological","positive","successful","person","male",0,"most unsuccessful","unsuccessful"
39,10558,"one_slider",8,"Cameron",0.5,"rich","richest","lexical","neg_positive","not rich","person","male",1,"poorest","poor"
39,5446,"one_slider",9,"Eric",0.74,"mature","most mature","morphological","positive","mature","person","male",0,"most immature","immature"
39,13101,"one_slider",10,"Laura",0.76,"proud","most proud","lexical","neg_antonym","not humble","person","female",0,"most humble","humble"
39,4926,"one_slider",11,"Julia",0.23,"strong","strongest","lexical","antonym","weak","person","female",1,"weakest","weak"
39,4723,"one_slider",12,"Monica",0.81,"tall","tallest","lexical","positive","tall","person","female",1,"shortest","short"
39,15119,"one_slider",13,"Jennifer",0.49,"intelligent","most intelligent","morphological","neg_antonym","not unintelligent","person","female",0,"most unintelligent","unintelligent"
39,5101,"one_slider",14,"Michael",0.22,"happy","happiest","morphological","antonym","unhappy","person","male",1,"unhappiest","unhappy"
39,5429,"one_slider",15,"Stephen",0.77,"brave","most brave","lexical","positive","brave","person","male",0,"most cowardly","cowardly"
39,9807,"one_slider",16,"Kim",0.48,"fat","fattest","lexical","neg_positive","not fat","person","female",1,"skinniest","skinny"
40,13705,"one_slider",1,"Monica",0.67,"polite","most polite","morphological","positive","polite","person","female",0,"most impolite","impolite"
40,7694,"one_slider",2,"William",0.9,"beautiful","most beautiful","lexical","positive","beautiful","person","male",0,"most ugly","ugly"
40,6671,"one_slider",3,"David",0.57,"successful","most successful","morphological","neg_antonym","not unsuccessful","person","male",0,"most unsuccessful","unsuccessful"
40,23520,"one_slider",4,"John",0.15,"educated","most educated","morphological","antonym","uneducated","person","male",0,"most uneducated","uneducated"
40,4127,"one_slider",5,"Michelle",0.68,"mature","most mature","morphological","positive","mature","person","female",0,"most immature","immature"
40,5919,"one_slider",6,"Daniel",0.15,"wise","most wise","lexical","neg_positive","not wise","person","male",0,"most foolish","foolish"
40,14304,"one_slider",7,"Stephanie",0.23,"hard-working","most hard-working","lexical","neg_positive","not hard-working","person","female",0,"most lazy","lazy"
40,4150,"one_slider",8,"Julia",0.63,"rich","richest","lexical","neg_antonym","not poor","person","female",1,"poorest","poor"
40,5391,"one_slider",9,"Kathleen",0.13,"attractive","most attractive","morphological","antonym","unattractive","person","female",0,"most unattractive","unattractive"
40,6023,"one_slider",10,"Michael",0.33,"happy","happiest","morphological","neg_positive","not happy","person","male",1,"unhappiest","unhappy"
40,14550,"one_slider",11,"Stephen",0.26,"brave","most brave","lexical","antonym","cowardly","person","male",0,"most cowardly","cowardly"
40,19703,"one_slider",12,"Sophia",0.77,"proud","most proud","lexical","positive","proud","person","female",0,"most humble","humble"
40,7207,"one_slider",13,"Angela",0.56,"interesting","most interesting","morphological","neg_antonym","not uninteresting","person","female",0,"most uninteresting","uninteresting"
40,28456,"one_slider",14,"Veronica",0.86,"loud","most loud","lexical","neg_antonym","not quiet","person","female",0,"most quiet","quiet"
40,9351,"one_slider",15,"Melinda",0.31,"strong","strongest","lexical","antonym","weak","person","female",1,"weakest","weak"
40,8255,"one_slider",16,"Lucas",0.17,"intelligent","most intelligent","morphological","neg_positive","not intelligent","person","male",0,"most unintelligent","unintelligent"
41,31844,"one_slider",1,"Alexander",0.26,"polite","most polite","morphological","neg_positive","not polite","person","male",0,"most impolite","impolite"
41,18436,"one_slider",2,"William",0.35,"wise","most wise","lexical","antonym","foolish","person","male",0,"most foolish","foolish"
41,20640,"one_slider",3,"Michael",0.66,"tall","tallest","lexical","positive","tall","person","male",1,"shortest","short"
41,16022,"one_slider",4,"Maya",0.14,"loud","most loud","lexical","antonym","quiet","person","female",0,"most quiet","quiet"
41,18647,"one_slider",5,"Sophia",0.65,"fat","fattest","lexical","neg_antonym","not skinny","person","female",1,"skinniest","skinny"
41,16139,"one_slider",6,"David",0.24,"intelligent","most intelligent","morphological","antonym","unintelligent","person","male",0,"most unintelligent","unintelligent"
41,21239,"one_slider",7,"Cameron",0.54,"strong","strongest","lexical","neg_antonym","not weak","person","male",1,"weakest","weak"
41,21714,"one_slider",8,"Kim",0.37,"hard-working","most hard-working","lexical","neg_positive","not hard-working","person","female",0,"most lazy","lazy"
41,16968,"one_slider",9,"Monica",0.53,"happy","happiest","morphological","neg_antonym","not unhappy","person","female",1,"unhappiest","unhappy"
41,16673,"one_slider",10,"Angela",0.99,"honest","most honest","morphological","positive","honest","person","female",0,"most dishonest","dishonest"
41,17758,"one_slider",11,"Daniel",0.85,"proud","most proud","lexical","positive","proud","person","male",0,"most humble","humble"
41,6512,"one_slider",12,"Greg",0.55,"educated","most educated","morphological","neg_antonym","not uneducated","person","male",0,"most uneducated","uneducated"
41,5828,"one_slider",13,"Anthony",0.84,"mature","most mature","morphological","positive","mature","person","male",0,"most immature","immature"
41,6557,"one_slider",14,"John",0.3,"attractive","most attractive","morphological","antonym","unattractive","person","male",0,"most unattractive","unattractive"
41,7497,"one_slider",15,"Julia",0.36,"interesting","most interesting","morphological","neg_positive","not interesting","person","female",0,"most uninteresting","uninteresting"
41,4098,"one_slider",16,"Stephanie",0.42,"rich","richest","lexical","neg_positive","not rich","person","female",1,"poorest","poor"
42,6256,"one_slider",1,"Tom",0.6,"intelligent","most intelligent","morphological","positive","intelligent","person","male",0,"most unintelligent","unintelligent"
42,3027,"one_slider",2,"Cameron",0.66,"rich","richest","lexical","positive","rich","person","male",1,"poorest","poor"
42,8793,"one_slider",3,"Kim",0.17,"proud","most proud","lexical","antonym","humble","person","female",0,"most humble","humble"
42,2576,"one_slider",4,"Claire",0.71,"loud","most loud","lexical","positive","loud","person","female",0,"most quiet","quiet"
42,4289,"one_slider",5,"Veronica",0.2,"polite","most polite","morphological","neg_positive","not polite","person","female",0,"most impolite","impolite"
42,3503,"one_slider",6,"Melinda",0.53,"strong","strongest","lexical","neg_antonym","not weak","person","female",1,"weakest","weak"
42,3344,"one_slider",7,"Alicia",0.61,"brave","most brave","lexical","neg_antonym","not cowardly","person","female",0,"most cowardly","cowardly"
42,3238,"one_slider",8,"William",0.18,"mature","most mature","morphological","antonym","immature","person","male",0,"most immature","immature"
42,2698,"one_slider",9,"Greg",0.36,"beautiful","most beautiful","lexical","antonym","ugly","person","male",0,"most ugly","ugly"
42,2693,"one_slider",10,"Gabriel",0.31,"educated","most educated","morphological","neg_antonym","not uneducated","person","male",0,"most uneducated","uneducated"
42,2419,"one_slider",11,"Lucas",0.31,"honest","most honest","morphological","neg_positive","not honest","person","male",0,"most dishonest","dishonest"
42,3138,"one_slider",12,"Daniel",0.38,"fat","fattest","lexical","neg_positive","not fat","person","male",1,"skinniest","skinny"
42,2080,"one_slider",13,"Maya",0.26,"friendly","most friendly","morphological","antonym","unfriendly","person","female",0,"most unfriendly","unfriendly"
42,12433,"one_slider",14,"Laura",0.73,"attractive","most attractive","morphological","positive","attractive","person","female",0,"most unattractive","unattractive"
42,16751,"one_slider",15,"Angela",0.28,"hard-working","most hard-working","lexical","neg_positive","not hard-working","person","female",0,"most lazy","lazy"
42,2106,"one_slider",16,"John",0.31,"happy","happiest","morphological","neg_antonym","not unhappy","person","male",1,"unhappiest","unhappy"
43,4919,"one_slider",1,"Michelle",0.2,"wise","most wise","lexical","antonym","foolish","person","female",0,"most foolish","foolish"
43,2137,"one_slider",2,"Monica",0.25,"honest","most honest","morphological","antonym","dishonest","person","female",0,"most dishonest","dishonest"
43,4145,"one_slider",3,"William",0.24,"proud","most proud","lexical","neg_positive","not proud","person","male",0,"most humble","humble"
