trial_type,antonym_type,endpoint_low,endpoint_high,response,trial_num,rt,slider_position,adjective_type,adjective,positive,morphant,referent,lexant,name,gender,exptid,workerid
four_sliders,morphant,the most impolite<br>person in the world,the most polite<br>person in the world,0.65,1,16171,1,morphant,impolite,polite,impolite,person,rude,Mia,female,NA,f5f636d9e25af37fe60056f67d1b9720
four_sliders,morphant,the most impolite<br>person in the world,the most polite<br>person in the world,0.6,1,16171,2,neg_positive,not polite,polite,impolite,person,rude,Nicole,female,NA,f5f636d9e25af37fe60056f67d1b9720
four_sliders,morphant,the most impolite<br>person in the world,the most polite<br>person in the world,0.67,1,16171,3,positive,polite,polite,impolite,person,rude,Alison,female,NA,f5f636d9e25af37fe60056f67d1b9720
four_sliders,morphant,the most impolite<br>person in the world,the most polite<br>person in the world,0.58,1,16171,4,neg_morphant,not impolite,polite,impolite,person,rude,Brooke,female,NA,f5f636d9e25af37fe60056f67d1b9720
four_sliders,morphant,the most impolite<br>person in the world,the most polite<br>person in the world,0.68,1,16171,5,neg_neg_positive,not not polite,polite,impolite,person,rude,Alicia,female,NA,f5f636d9e25af37fe60056f67d1b9720
four_sliders,morphant,the most unattractive<br>person in the world,the most attractive<br>person in the world,0.5,2,9113,1,neg_morphant,not unattractive,attractive,unattractive,person,ugly,Angela,female,NA,f5f636d9e25af37fe60056f67d1b9720
four_sliders,morphant,the most unattractive<br>person in the world,the most attractive<br>person in the world,0.62,2,9113,2,neg_neg_positive,not not attractive,attractive,unattractive,person,ugly,Anthony,male,NA,f5f636d9e25af37fe60056f67d1b9720
four_sliders,morphant,the most unattractive<br>person in the world,the most attractive<br>person in the world,0.57,2,9113,3,positive,attractive,attractive,unattractive,person,ugly,Emma,female,NA,f5f636d9e25af37fe60056f67d1b9720
four_sliders,morphant,the most unattractive<br>person in the world,the most attractive<br>person in the world,0.6,2,9113,4,neg_positive,not attractive,attractive,unattractive,person,ugly,Kathleen,female,NA,f5f636d9e25af37fe60056f67d1b9720
four_sliders,morphant,the most unattractive<br>person in the world,the most attractive<br>person in the world,0.51,2,9113,5,morphant,unattractive,attractive,unattractive,person,ugly,Gabriel,male,NA,f5f636d9e25af37fe60056f67d1b9720
four_sliders,morphant,the most unpatriotic<br>person in the world,the most patriotic<br>person in the world,0.55,3,13923,1,morphant,unpatriotic,patriotic,unpatriotic,person,traitorous,Tom,male,NA,f5f636d9e25af37fe60056f67d1b9720
four_sliders,morphant,the most unpatriotic<br>person in the world,the most patriotic<br>person in the world,0.64,3,13923,2,neg_neg_positive,not not patriotic,patriotic,unpatriotic,person,traitorous,Eric,male,NA,f5f636d9e25af37fe60056f67d1b9720
four_sliders,morphant,the most unpatriotic<br>person in the world,the most patriotic<br>person in the world,0.69,3,13923,3,positive,patriotic,patriotic,unpatriotic,person,traitorous,Andrew,male,NA,f5f636d9e25af37fe60056f67d1b9720
four_sliders,morphant,the most unpatriotic<br>person in the world,the most patriotic<br>person in the world,0.74,3,13923,4,neg_positive,not patriotic,patriotic,unpatriotic,person,traitorous,David,male,NA,f5f636d9e25af37fe60056f67d1b9720
four_sliders,morphant,the most unpatriotic<br>person in the world,the most patriotic<br>person in the world,0.81,3,13923,5,neg_morphant,not unpatriotic,patriotic,unpatriotic,person,traitorous,Dylan,male,NA,f5f636d9e25af37fe60056f67d1b9720
four_sliders,morphant,the most unkind<br>person in the world,the most kind<br>person in the world,0.48,4,10785,1,neg_morphant,not unkind,kind,unkind,person,cruel,Lucas,male,NA,f5f636d9e25af37fe60056f67d1b9720
four_sliders,morphant,the most unkind<br>person in the world,the most kind<br>person in the world,0.55,4,10785,2,neg_neg_positive,not not kind,kind,unkind,person,cruel,Jennifer,female,NA,f5f636d9e25af37fe60056f67d1b9720
four_sliders,morphant,the most unkind<br>person in the world,the most kind<br>person in the world,0.62,4,10785,3,neg_positive,not kind,kind,unkind,person,cruel,Noah,male,NA,f5f636d9e25af37fe60056f67d1b9720
four_sliders,morphant,the most unkind<br>person in the world,the most kind<br>person in the world,0.65,4,10785,4,positive,kind,kind,unkind,person,cruel,Claire,female,NA,f5f636d9e25af37fe60056f67d1b9720
four_sliders,morphant,the most unkind<br>person in the world,the most kind<br>person in the world,0.73,4,10785,5,morphant,unkind,kind,unkind,person,cruel,Liam,male,NA,f5f636d9e25af37fe60056f67d1b9720
four_sliders,morphant,the most unambitious<br>person in the world,the most ambitious<br>person in the world,0.53,5,21980,1,neg_neg_positive,not not ambitious,ambitious,unambitious,person,lazy,Diana,female,NA,f5f636d9e25af37fe60056f67d1b9720
four_sliders,morphant,the most unambitious<br>person in the world,the most ambitious<br>person in the world,0.62,5,21980,2,neg_positive,not ambitious,ambitious,unambitious,person,lazy,Cameron,male,NA,f5f636d9e25af37fe60056f67d1b9720
four_sliders,morphant,the most unambitious<br>person in the world,the most ambitious<br>person in the world,0.62,5,21980,3,neg_morphant,not unambitious,ambitious,unambitious,person,lazy,Maya,female,NA,f5f636d9e25af37fe60056f67d1b9720
four_sliders,morphant,the most unambitious<br>person in the world,the most ambitious<br>person in the world,0.65,5,21980,4,positive,ambitious,ambitious,unambitious,person,lazy,Veronica,female,NA,f5f636d9e25af37fe60056f67d1b9720
four_sliders,morphant,the most unambitious<br>person in the world,the most ambitious<br>person in the world,0.57,5,21980,5,morphant,unambitious,ambitious,unambitious,person,lazy,Stephen,male,NA,f5f636d9e25af37fe60056f67d1b9720
four_sliders,morphant,the most irrational<br>person in the world,the most rational<br>person in the world,0.58,6,12709,1,neg_neg_positive,not not rational,rational,irrational,person,crazy,Stephanie,female,NA,f5f636d9e25af37fe60056f67d1b9720
four_sliders,morphant,the most irrational<br>person in the world,the most rational<br>person in the world,0.59,6,12709,2,morphant,irrational,rational,irrational,person,crazy,Amber,female,NA,f5f636d9e25af37fe60056f67d1b9720
four_sliders,morphant,the most irrational<br>person in the world,the most rational<br>person in the world,0.66,6,12709,3,neg_morphant,not irrational,rational,irrational,person,crazy,Jeremy,male,NA,f5f636d9e25af37fe60056f67d1b9720
four_sliders,morphant,the most irrational<br>person in the world,the most rational<br>person in the world,0.59,6,12709,4,neg_positive,not rational,rational,irrational,person,crazy,Julia,female,NA,f5f636d9e25af37fe60056f67d1b9720
four_sliders,morphant,the most irrational<br>person in the world,the most rational<br>person in the world,0.64,6,12709,5,positive,rational,rational,irrational,person,crazy,William,male,NA,f5f636d9e25af37fe60056f67d1b9720
four_sliders,morphant,the most intolerant<br>person in the world,the most tolerant<br>person in the world,0.46,7,11772,1,neg_neg_positive,not not tolerant,tolerant,intolerant,person,bigoted,Samuel,male,NA,f5f636d9e25af37fe60056f67d1b9720
four_sliders,morphant,the most intolerant<br>person in the world,the most tolerant<br>person in the world,0.58,7,11772,2,positive,tolerant,tolerant,intolerant,person,bigoted,Alexander,male,NA,f5f636d9e25af37fe60056f67d1b9720
four_sliders,morphant,the most intolerant<br>person in the world,the most tolerant<br>person in the world,0.61,7,11772,3,neg_positive,not tolerant,tolerant,intolerant,person,bigoted,Kim,female,NA,f5f636d9e25af37fe60056f67d1b9720
four_sliders,morphant,the most intolerant<br>person in the world,the most tolerant<br>person in the world,0.66,7,11772,4,morphant,intolerant,tolerant,intolerant,person,bigoted,Michelle,female,NA,f5f636d9e25af37fe60056f67d1b9720
four_sliders,morphant,the most intolerant<br>person in the world,the most tolerant<br>person in the world,0.57,7,11772,5,neg_morphant,not intolerant,tolerant,intolerant,person,bigoted,Mason,male,NA,f5f636d9e25af37fe60056f67d1b9720
four_sliders,morphant,the most uneducated<br>person in the world,the most educated<br>person in the world,0.51,8,10124,1,positive,educated,educated,uneducated,person,ignorant,Melinda,female,NA,f5f636d9e25af37fe60056f67d1b9720
four_sliders,morphant,the most uneducated<br>person in the world,the most educated<br>person in the world,0.61,8,10124,2,neg_neg_positive,not not educated,educated,uneducated,person,ignorant,Greg,male,NA,f5f636d9e25af37fe60056f67d1b9720
four_sliders,morphant,the most uneducated<br>person in the world,the most educated<br>person in the world,0.68,8,10124,3,neg_morphant,not uneducated,educated,uneducated,person,ignorant,Charles,male,NA,f5f636d9e25af37fe60056f67d1b9720
four_sliders,morphant,the most uneducated<br>person in the world,the most educated<br>person in the world,0.63,8,10124,4,neg_positive,not educated,educated,uneducated,person,ignorant,Daniel,male,NA,f5f636d9e25af37fe60056f67d1b9720
four_sliders,morphant,the most uneducated<br>person in the world,the most educated<br>person in the world,0.55,8,10124,5,morphant,uneducated,educated,uneducated,person,ignorant,Sasha,female,NA,f5f636d9e25af37fe60056f67d1b9720
four_sliders,morphant,the most unaffectionate<br>person in the world,the most affectionate<br>person in the world,0.85,1,38500,1,positive,affectionate,affectionate,unaffectionate,person,cold,Mason,male,NA,1a3d63a540c5d1a40171fbe4f511838c
four_sliders,morphant,the most unaffectionate<br>person in the world,the most affectionate<br>person in the world,0.14,1,38500,2,morphant,unaffectionate,affectionate,unaffectionate,person,cold,Brooke,female,NA,1a3d63a540c5d1a40171fbe4f511838c
four_sliders,morphant,the most unaffectionate<br>person in the world,the most affectionate<br>person in the world,0.57,1,38500,3,neg_neg_positive,not not affectionate,affectionate,unaffectionate,person,cold,Liam,male,NA,1a3d63a540c5d1a40171fbe4f511838c
four_sliders,morphant,the most unaffectionate<br>person in the world,the most affectionate<br>person in the world,0.57,1,38500,4,neg_morphant,not unaffectionate,affectionate,unaffectionate,person,cold,Monica,female,NA,1a3d63a540c5d1a40171fbe4f511838c
four_sliders,morphant,the most unaffectionate<br>person in the world,the most affectionate<br>person in the world,0.12,1,38500,5,neg_positive,not affectionate,affectionate,unaffectionate,person,cold,Gabriel,male,NA,1a3d63a540c5d1a40171fbe4f511838c
four_sliders,morphant,the most unkind<br>person in the world,the most kind<br>person in the world,0.51,2,18521,1,neg_neg_positive,not not kind,kind,unkind,person,cruel,Alison,female,NA,1a3d63a540c5d1a40171fbe4f511838c
four_sliders,morphant,the most unkind<br>person in the world,the most kind<br>person in the world,0.89,2,18521,2,positive,kind,kind,unkind,person,cruel,Sophia,female,NA,1a3d63a540c5d1a40171fbe4f511838c
four_sliders,morphant,the most unkind<br>person in the world,the most kind<br>person in the world,0.05,2,18521,3,morphant,unkind,kind,unkind,person,cruel,Veronica,female,NA,1a3d63a540c5d1a40171fbe4f511838c
four_sliders,morphant,the most unkind<br>person in the world,the most kind<br>person in the world,0.16,2,18521,4,neg_positive,not kind,kind,unkind,person,cruel,Stephanie,female,NA,1a3d63a540c5d1a40171fbe4f511838c
four_sliders,morphant,the most unkind<br>person in the world,the most kind<br>person in the world,0.57,2,18521,5,neg_morphant,not unkind,kind,unkind,person,cruel,Jeremy,male,NA,1a3d63a540c5d1a40171fbe4f511838c
four_sliders,morphant,the most unintelligent<br>person in the world,the most intelligent<br>person in the world,0.06,3,43284,1,neg_positive,not intelligent,intelligent,unintelligent,person,stupid,Diana,female,NA,1a3d63a540c5d1a40171fbe4f511838c
four_sliders,morphant,the most unintelligent<br>person in the world,the most intelligent<br>person in the world,0.51,3,43284,2,neg_neg_positive,not not intelligent,intelligent,unintelligent,person,stupid,Kim,female,NA,1a3d63a540c5d1a40171fbe4f511838c
four_sliders,morphant,the most unintelligent<br>person in the world,the most intelligent<br>person in the world,0.71,3,43284,3,neg_morphant,not unintelligent,intelligent,unintelligent,person,stupid,Emma,female,NA,1a3d63a540c5d1a40171fbe4f511838c
four_sliders,morphant,the most unintelligent<br>person in the world,the most intelligent<br>person in the world,0.9,3,43284,4,positive,intelligent,intelligent,unintelligent,person,stupid,Sasha,female,NA,1a3d63a540c5d1a40171fbe4f511838c
four_sliders,morphant,the most unintelligent<br>person in the world,the most intelligent<br>person in the world,0.15,3,43284,5,morphant,unintelligent,intelligent,unintelligent,person,stupid,Noah,male,NA,1a3d63a540c5d1a40171fbe4f511838c
four_sliders,morphant,the most immature<br>person in the world,the most mature<br>person in the world,0.17,4,60100,1,neg_positive,not mature,mature,immature,person,childish,John,male,NA,1a3d63a540c5d1a40171fbe4f511838c
four_sliders,morphant,the most immature<br>person in the world,the most mature<br>person in the world,0.89,4,60100,2,positive,mature,mature,immature,person,childish,David,male,NA,1a3d63a540c5d1a40171fbe4f511838c
four_sliders,morphant,the most immature<br>person in the world,the most mature<br>person in the world,0.09,4,60100,3,morphant,immature,mature,immature,person,childish,Mia,female,NA,1a3d63a540c5d1a40171fbe4f511838c
four_sliders,morphant,the most immature<br>person in the world,the most mature<br>person in the world,0.52,4,60100,4,neg_neg_positive,not not mature,mature,immature,person,childish,Samuel,male,NA,1a3d63a540c5d1a40171fbe4f511838c
four_sliders,morphant,the most immature<br>person in the world,the most mature<br>person in the world,0.67,4,60100,5,neg_morphant,not immature,mature,immature,person,childish,Kathleen,female,NA,1a3d63a540c5d1a40171fbe4f511838c
four_sliders,morphant,the most uneducated<br>person in the world,the most educated<br>person in the world,0.82,5,18980,1,positive,educated,educated,uneducated,person,ignorant,Stephen,male,NA,1a3d63a540c5d1a40171fbe4f511838c
four_sliders,morphant,the most uneducated<br>person in the world,the most educated<br>person in the world,0.48,5,18980,2,neg_neg_positive,not not educated,educated,uneducated,person,ignorant,Greg,male,NA,1a3d63a540c5d1a40171fbe4f511838c
four_sliders,morphant,the most uneducated<br>person in the world,the most educated<br>person in the world,0.7,5,18980,3,neg_morphant,not uneducated,educated,uneducated,person,ignorant,Lucas,male,NA,1a3d63a540c5d1a40171fbe4f511838c
four_sliders,morphant,the most uneducated<br>person in the world,the most educated<br>person in the world,0.21,5,18980,4,neg_positive,not educated,educated,uneducated,person,ignorant,Lee,male,NA,1a3d63a540c5d1a40171fbe4f511838c
four_sliders,morphant,the most uneducated<br>person in the world,the most educated<br>person in the world,0.15,5,18980,5,morphant,uneducated,educated,uneducated,person,ignorant,Jackie,female,NA,1a3d63a540c5d1a40171fbe4f511838c
four_sliders,morphant,the most unresourceful<br>person in the world,the most resourceful<br>person in the world,0.91,6,17045,1,positive,resourceful,resourceful,unresourceful,person,wasteful,Daniel,male,NA,1a3d63a540c5d1a40171fbe4f511838c
four_sliders,morphant,the most unresourceful<br>person in the world,the most resourceful<br>person in the world,0.1,6,17045,2,neg_positive,not resourceful,resourceful,unresourceful,person,wasteful,Michael,male,NA,1a3d63a540c5d1a40171fbe4f511838c
four_sliders,morphant,the most unresourceful<br>person in the world,the most resourceful<br>person in the world,0.61,6,17045,3,neg_morphant,not unresourceful,resourceful,unresourceful,person,wasteful,Angela,female,NA,1a3d63a540c5d1a40171fbe4f511838c
four_sliders,morphant,the most unresourceful<br>person in the world,the most resourceful<br>person in the world,0.51,6,17045,4,neg_neg_positive,not not resourceful,resourceful,unresourceful,person,wasteful,Melinda,female,NA,1a3d63a540c5d1a40171fbe4f511838c
four_sliders,morphant,the most unresourceful<br>person in the world,the most resourceful<br>person in the world,0.08,6,17045,5,morphant,unresourceful,resourceful,unresourceful,person,wasteful,Anthony,male,NA,1a3d63a540c5d1a40171fbe4f511838c
four_sliders,morphant,the most unattractive<br>person in the world,the most attractive<br>person in the world,0.61,7,19219,1,neg_morphant,not unattractive,attractive,unattractive,person,ugly,Amber,female,NA,1a3d63a540c5d1a40171fbe4f511838c
four_sliders,morphant,the most unattractive<br>person in the world,the most attractive<br>person in the world,0.11,7,19219,2,neg_positive,not attractive,attractive,unattractive,person,ugly,Charles,male,NA,1a3d63a540c5d1a40171fbe4f511838c
four_sliders,morphant,the most unattractive<br>person in the world,the most attractive<br>person in the world,0.22,7,19219,3,morphant,unattractive,attractive,unattractive,person,ugly,Alexander,male,NA,1a3d63a540c5d1a40171fbe4f511838c
four_sliders,morphant,the most unattractive<br>person in the world,the most attractive<br>person in the world,0.53,7,19219,4,neg_neg_positive,not not attractive,attractive,unattractive,person,ugly,Dylan,male,NA,1a3d63a540c5d1a40171fbe4f511838c
four_sliders,morphant,the most unattractive<br>person in the world,the most attractive<br>person in the world,0.83,7,19219,5,positive,attractive,attractive,unattractive,person,ugly,Claire,female,NA,1a3d63a540c5d1a40171fbe4f511838c
four_sliders,morphant,the most unforgiving<br>person in the world,the most forgiving<br>person in the world,0.9,8,20133,1,positive,forgiving,forgiving,unforgiving,person,resentful,Michelle,female,NA,1a3d63a540c5d1a40171fbe4f511838c
four_sliders,morphant,the most unforgiving<br>person in the world,the most forgiving<br>person in the world,0.08,8,20133,2,morphant,unforgiving,forgiving,unforgiving,person,resentful,Julia,female,NA,1a3d63a540c5d1a40171fbe4f511838c
four_sliders,morphant,the most unforgiving<br>person in the world,the most forgiving<br>person in the world,0.24,8,20133,3,neg_positive,not forgiving,forgiving,unforgiving,person,resentful,Tom,male,NA,1a3d63a540c5d1a40171fbe4f511838c
four_sliders,morphant,the most unforgiving<br>person in the world,the most forgiving<br>person in the world,0.58,8,20133,4,neg_morphant,not unforgiving,forgiving,unforgiving,person,resentful,Cameron,male,NA,1a3d63a540c5d1a40171fbe4f511838c
four_sliders,morphant,the most unforgiving<br>person in the world,the most forgiving<br>person in the world,0.56,8,20133,5,neg_neg_positive,not not forgiving,forgiving,unforgiving,person,resentful,Alicia,female,NA,1a3d63a540c5d1a40171fbe4f511838c
four_sliders,morphant,the most immature<br>person in the world,the most mature<br>person in the world,0.87,1,68353,1,positive,mature,mature,immature,person,childish,Lucas,male,NA,495e666beca342982532fcb8be98055a
four_sliders,morphant,the most immature<br>person in the world,the most mature<br>person in the world,0.07,1,68353,2,morphant,immature,mature,immature,person,childish,Stephen,male,NA,495e666beca342982532fcb8be98055a
four_sliders,morphant,the most immature<br>person in the world,the most mature<br>person in the world,0.34,1,68353,3,neg_positive,not mature,mature,immature,person,childish,Jackie,female,NA,495e666beca342982532fcb8be98055a
four_sliders,morphant,the most immature<br>person in the world,the most mature<br>person in the world,0.29,1,68353,4,neg_neg_positive,not not mature,mature,immature,person,childish,Alicia,female,NA,495e666beca342982532fcb8be98055a
four_sliders,morphant,the most immature<br>person in the world,the most mature<br>person in the world,0.1,1,68353,5,neg_morphant,not immature,mature,immature,person,childish,Diana,female,NA,495e666beca342982532fcb8be98055a
four_sliders,morphant,the most dishonest<br>person in the world,the most honest<br>person in the world,0.27,2,23620,1,neg_neg_positive,not not honest,honest,dishonest,person,deceitful,Sophia,female,NA,495e666beca342982532fcb8be98055a
four_sliders,morphant,the most dishonest<br>person in the world,the most honest<br>person in the world,0.97,2,23620,2,positive,honest,honest,dishonest,person,deceitful,Sasha,female,NA,495e666beca342982532fcb8be98055a
four_sliders,morphant,the most dishonest<br>person in the world,the most honest<br>person in the world,0.04,2,23620,3,morphant,dishonest,honest,dishonest,person,deceitful,Michelle,female,NA,495e666beca342982532fcb8be98055a
four_sliders,morphant,the most dishonest<br>person in the world,the most honest<br>person in the world,0.71,2,23620,4,neg_morphant,not dishonest,honest,dishonest,person,deceitful,Laura,female,NA,495e666beca342982532fcb8be98055a
four_sliders,morphant,the most dishonest<br>person in the world,the most honest<br>person in the world,0.28,2,23620,5,neg_positive,not honest,honest,dishonest,person,deceitful,Maya,female,NA,495e666beca342982532fcb8be98055a
four_sliders,morphant,the most impolite<br>person in the world,the most polite<br>person in the world,0.24,3,25046,1,neg_positive,not polite,polite,impolite,person,rude,Stephanie,female,NA,495e666beca342982532fcb8be98055a
four_sliders,morphant,the most impolite<br>person in the world,the most polite<br>person in the world,0.77,3,25046,2,neg_morphant,not impolite,polite,impolite,person,rude,Jeremy,male,NA,495e666beca342982532fcb8be98055a
four_sliders,morphant,the most impolite<br>person in the world,the most polite<br>person in the world,0.24,3,25046,3,neg_neg_positive,not not polite,polite,impolite,person,rude,Noah,male,NA,495e666beca342982532fcb8be98055a
four_sliders,morphant,the most impolite<br>person in the world,the most polite<br>person in the world,0.06,3,25046,4,morphant,impolite,polite,impolite,person,rude,Angela,female,NA,495e666beca342982532fcb8be98055a
four_sliders,morphant,the most impolite<br>person in the world,the most polite<br>person in the world,0.97,3,25046,5,positive,polite,polite,impolite,person,rude,Liam,male,NA,495e666beca342982532fcb8be98055a
four_sliders,morphant,the most unresourceful<br>person in the world,the most resourceful<br>person in the world,0.79,4,23733,1,neg_morphant,not unresourceful,resourceful,unresourceful,person,wasteful,Michael,male,NA,495e666beca342982532fcb8be98055a
four_sliders,morphant,the most unresourceful<br>person in the world,the most resourceful<br>person in the world,0.96,4,23733,2,positive,resourceful,resourceful,unresourceful,person,wasteful,Anthony,male,NA,495e666beca342982532fcb8be98055a
four_sliders,morphant,the most unresourceful<br>person in the world,the most resourceful<br>person in the world,0.06,4,23733,3,morphant,unresourceful,resourceful,unresourceful,person,wasteful,Jennifer,female,NA,495e666beca342982532fcb8be98055a
four_sliders,morphant,the most unresourceful<br>person in the world,the most resourceful<br>person in the world,0.73,4,23733,4,neg_positive,not resourceful,resourceful,unresourceful,person,wasteful,David,male,NA,495e666beca342982532fcb8be98055a
four_sliders,morphant,the most unresourceful<br>person in the world,the most resourceful<br>person in the world,0.8,4,23733,5,neg_neg_positive,not not resourceful,resourceful,unresourceful,person,wasteful,Charles,male,NA,495e666beca342982532fcb8be98055a
four_sliders,morphant,the most unfriendly<br>person in the world,the most friendly<br>person in the world,0.96,5,32117,1,positive,friendly,friendly,unfriendly,person,mean,Kim,female,NA,495e666beca342982532fcb8be98055a
four_sliders,morphant,the most unfriendly<br>person in the world,the most friendly<br>person in the world,0.32,5,32117,2,neg_morphant,not unfriendly,friendly,unfriendly,person,mean,Tom,male,NA,495e666beca342982532fcb8be98055a
four_sliders,morphant,the most unfriendly<br>person in the world,the most friendly<br>person in the world,0.2,5,32117,3,neg_neg_positive,not not friendly,friendly,unfriendly,person,mean,Nicole,female,NA,495e666beca342982532fcb8be98055a
four_sliders,morphant,the most unfriendly<br>person in the world,the most friendly<br>person in the world,0.03,5,32117,4,morphant,unfriendly,friendly,unfriendly,person,mean,Julia,female,NA,495e666beca342982532fcb8be98055a
four_sliders,morphant,the most unfriendly<br>person in the world,the most friendly<br>person in the world,0.32,5,32117,5,neg_positive,not friendly,friendly,unfriendly,person,mean,Lee,male,NA,495e666beca342982532fcb8be98055a
four_sliders,morphant,the most unkind<br>person in the world,the most kind<br>person in the world,0.03,6,24681,1,morphant,unkind,kind,unkind,person,cruel,John,male,NA,495e666beca342982532fcb8be98055a
four_sliders,morphant,the most unkind<br>person in the world,the most kind<br>person in the world,0.33,6,24681,2,neg_positive,not kind,kind,unkind,person,cruel,Monica,female,NA,495e666beca342982532fcb8be98055a
four_sliders,morphant,the most unkind<br>person in the world,the most kind<br>person in the world,0.96,6,24681,3,positive,kind,kind,unkind,person,cruel,Samuel,male,NA,495e666beca342982532fcb8be98055a
four_sliders,morphant,the most unkind<br>person in the world,the most kind<br>person in the world,0.22,6,24681,4,neg_neg_positive,not not kind,kind,unkind,person,cruel,Alison,female,NA,495e666beca342982532fcb8be98055a
four_sliders,morphant,the most unkind<br>person in the world,the most kind<br>person in the world,0.73,6,24681,5,neg_morphant,not unkind,kind,unkind,person,cruel,Daniel,male,NA,495e666beca342982532fcb8be98055a
four_sliders,morphant,the most unforgiving<br>person in the world,the most forgiving<br>person in the world,0.03,7,37455,1,morphant,unforgiving,forgiving,unforgiving,person,resentful,Emma,female,NA,495e666beca342982532fcb8be98055a
four_sliders,morphant,the most unforgiving<br>person in the world,the most forgiving<br>person in the world,0.75,7,37455,2,neg_morphant,not unforgiving,forgiving,unforgiving,person,resentful,Mason,male,NA,495e666beca342982532fcb8be98055a
four_sliders,morphant,the most unforgiving<br>person in the world,the most forgiving<br>person in the world,0.24,7,37455,3,neg_neg_positive,not not forgiving,forgiving,unforgiving,person,resentful,Veronica,female,NA,495e666beca342982532fcb8be98055a
four_sliders,morphant,the most unforgiving<br>person in the world,the most forgiving<br>person in the world,0.34,7,37455,4,neg_positive,not forgiving,forgiving,unforgiving,person,resentful,Eric,male,NA,495e666beca342982532fcb8be98055a
four_sliders,morphant,the most unforgiving<br>person in the world,the most forgiving<br>person in the world,0.95,7,37455,5,positive,forgiving,forgiving,unforgiving,person,resentful,Gabriel,male,NA,495e666beca342982532fcb8be98055a
four_sliders,morphant,the most uneducated<br>person in the world,the most educated<br>person in the world,0.21,8,28450,1,neg_neg_positive,not not educated,educated,uneducated,person,ignorant,Dylan,male,NA,495e666beca342982532fcb8be98055a
four_sliders,morphant,the most uneducated<br>person in the world,the most educated<br>person in the world,0.94,8,28450,2,positive,educated,educated,uneducated,person,ignorant,Jacob,male,NA,495e666beca342982532fcb8be98055a
four_sliders,morphant,the most uneducated<br>person in the world,the most educated<br>person in the world,0.8,8,28450,3,neg_morphant,not uneducated,educated,uneducated,person,ignorant,William,male,NA,495e666beca342982532fcb8be98055a
four_sliders,morphant,the most uneducated<br>person in the world,the most educated<br>person in the world,0.28,8,28450,4,neg_positive,not educated,educated,uneducated,person,ignorant,Mia,female,NA,495e666beca342982532fcb8be98055a
four_sliders,morphant,the most uneducated<br>person in the world,the most educated<br>person in the world,0.06,8,28450,5,morphant,uneducated,educated,uneducated,person,ignorant,Greg,male,NA,495e666beca342982532fcb8be98055a
four_sliders,morphant,the most dishonest<br>person in the world,the most honest<br>person in the world,0.25,1,28526,1,neg_positive,not honest,honest,dishonest,person,deceitful,Angela,female,NA,4d12f3a971d5f4e8c09b506a3fc46c07
four_sliders,morphant,the most dishonest<br>person in the world,the most honest<br>person in the world,0.79,1,28526,2,positive,honest,honest,dishonest,person,deceitful,Lucas,male,NA,4d12f3a971d5f4e8c09b506a3fc46c07
four_sliders,morphant,the most dishonest<br>person in the world,the most honest<br>person in the world,0.76,1,28526,3,neg_neg_positive,not not honest,honest,dishonest,person,deceitful,Melinda,female,NA,4d12f3a971d5f4e8c09b506a3fc46c07
four_sliders,morphant,the most dishonest<br>person in the world,the most honest<br>person in the world,0.2,1,28526,4,morphant,dishonest,honest,dishonest,person,deceitful,Jennifer,female,NA,4d12f3a971d5f4e8c09b506a3fc46c07
four_sliders,morphant,the most dishonest<br>person in the world,the most honest<br>person in the world,0.78,1,28526,5,neg_morphant,not dishonest,honest,dishonest,person,deceitful,Kim,female,NA,4d12f3a971d5f4e8c09b506a3fc46c07
four_sliders,morphant,the most immature<br>person in the world,the most mature<br>person in the world,0.72,2,17831,1,neg_morphant,not immature,mature,immature,person,childish,Jeremy,male,NA,4d12f3a971d5f4e8c09b506a3fc46c07
four_sliders,morphant,the most immature<br>person in the world,the most mature<br>person in the world,0.23,2,17831,2,morphant,immature,mature,immature,person,childish,Michelle,female,NA,4d12f3a971d5f4e8c09b506a3fc46c07
four_sliders,morphant,the most immature<br>person in the world,the most mature<br>person in the world,0.71,2,17831,3,neg_neg_positive,not not mature,mature,immature,person,childish,Lee,male,NA,4d12f3a971d5f4e8c09b506a3fc46c07
four_sliders,morphant,the most immature<br>person in the world,the most mature<br>person in the world,0.82,2,17831,4,positive,mature,mature,immature,person,childish,Monica,female,NA,4d12f3a971d5f4e8c09b506a3fc46c07
four_sliders,morphant,the most immature<br>person in the world,the most mature<br>person in the world,0.28,2,17831,5,neg_positive,not mature,mature,immature,person,childish,Tom,male,NA,4d12f3a971d5f4e8c09b506a3fc46c07
four_sliders,morphant,the most insincere<br>person in the world,the most sincere<br>person in the world,0.79,3,17119,1,positive,sincere,sincere,insincere,person,fake,Gabriel,male,NA,4d12f3a971d5f4e8c09b506a3fc46c07
four_sliders,morphant,the most insincere<br>person in the world,the most sincere<br>person in the world,0.73,3,17119,2,neg_morphant,not insincere,sincere,insincere,person,fake,Liam,male,NA,4d12f3a971d5f4e8c09b506a3fc46c07
four_sliders,morphant,the most insincere<br>person in the world,the most sincere<br>person in the world,0.73,3,17119,3,neg_neg_positive,not not sincere,sincere,insincere,person,fake,William,male,NA,4d12f3a971d5f4e8c09b506a3fc46c07
four_sliders,morphant,the most insincere<br>person in the world,the most sincere<br>person in the world,0.15,3,17119,4,morphant,insincere,sincere,insincere,person,fake,David,male,NA,4d12f3a971d5f4e8c09b506a3fc46c07
four_sliders,morphant,the most insincere<br>person in the world,the most sincere<br>person in the world,0.24,3,17119,5,neg_positive,not sincere,sincere,insincere,person,fake,Nicole,female,NA,4d12f3a971d5f4e8c09b506a3fc46c07
four_sliders,morphant,the most intolerant<br>person in the world,the most tolerant<br>person in the world,0.21,4,17432,1,neg_positive,not tolerant,tolerant,intolerant,person,bigoted,Alison,female,NA,4d12f3a971d5f4e8c09b506a3fc46c07
four_sliders,morphant,the most intolerant<br>person in the world,the most tolerant<br>person in the world,0.14,4,17432,2,morphant,intolerant,tolerant,intolerant,person,bigoted,Alexander,male,NA,4d12f3a971d5f4e8c09b506a3fc46c07
four_sliders,morphant,the most intolerant<br>person in the world,the most tolerant<br>person in the world,0.82,4,17432,3,positive,tolerant,tolerant,intolerant,person,bigoted,Samuel,male,NA,4d12f3a971d5f4e8c09b506a3fc46c07
four_sliders,morphant,the most intolerant<br>person in the world,the most tolerant<br>person in the world,0.76,4,17432,4,neg_neg_positive,not not tolerant,tolerant,intolerant,person,bigoted,Emma,female,NA,4d12f3a971d5f4e8c09b506a3fc46c07
four_sliders,morphant,the most intolerant<br>person in the world,the most tolerant<br>person in the world,0.77,4,17432,5,neg_morphant,not intolerant,tolerant,intolerant,person,bigoted,Diana,female,NA,4d12f3a971d5f4e8c09b506a3fc46c07
four_sliders,morphant,the most unfriendly<br>person in the world,the most friendly<br>person in the world,0.75,5,14120,1,neg_neg_positive,not not friendly,friendly,unfriendly,person,mean,Anthony,male,NA,4d12f3a971d5f4e8c09b506a3fc46c07
four_sliders,morphant,the most unfriendly<br>person in the world,the most friendly<br>person in the world,0.75,5,14120,2,neg_morphant,not unfriendly,friendly,unfriendly,person,mean,Maya,female,NA,4d12f3a971d5f4e8c09b506a3fc46c07
four_sliders,morphant,the most unfriendly<br>person in the world,the most friendly<br>person in the world,0.22,5,14120,3,morphant,unfriendly,friendly,unfriendly,person,mean,Sasha,female,NA,4d12f3a971d5f4e8c09b506a3fc46c07
four_sliders,morphant,the most unfriendly<br>person in the world,the most friendly<br>person in the world,0.82,5,14120,4,positive,friendly,friendly,unfriendly,person,mean,Dylan,male,NA,4d12f3a971d5f4e8c09b506a3fc46c07
four_sliders,morphant,the most unfriendly<br>person in the world,the most friendly<br>person in the world,0.26,5,14120,5,neg_positive,not friendly,friendly,unfriendly,person,mean,Daniel,male,NA,4d12f3a971d5f4e8c09b506a3fc46c07
four_sliders,morphant,the most unforgiving<br>person in the world,the most forgiving<br>person in the world,0.16,6,17168,1,morphant,unforgiving,forgiving,unforgiving,person,resentful,Cameron,male,NA,4d12f3a971d5f4e8c09b506a3fc46c07
four_sliders,morphant,the most unforgiving<br>person in the world,the most forgiving<br>person in the world,0.74,6,17168,2,neg_morphant,not unforgiving,forgiving,unforgiving,person,resentful,Claire,female,NA,4d12f3a971d5f4e8c09b506a3fc46c07
four_sliders,morphant,the most unforgiving<br>person in the world,the most forgiving<br>person in the world,0.74,6,17168,3,neg_neg_positive,not not forgiving,forgiving,unforgiving,person,resentful,Mason,male,NA,4d12f3a971d5f4e8c09b506a3fc46c07
four_sliders,morphant,the most unforgiving<br>person in the world,the most forgiving<br>person in the world,0.83,6,17168,4,positive,forgiving,forgiving,unforgiving,person,resentful,Jackie,female,NA,4d12f3a971d5f4e8c09b506a3fc46c07
four_sliders,morphant,the most unforgiving<br>person in the world,the most forgiving<br>person in the world,0.24,6,17168,5,neg_positive,not forgiving,forgiving,unforgiving,person,resentful,Veronica,female,NA,4d12f3a971d5f4e8c09b506a3fc46c07
four_sliders,morphant,the most unkind<br>person in the world,the most kind<br>person in the world,0.23,7,17368,1,neg_positive,not kind,kind,unkind,person,cruel,Stephanie,female,NA,4d12f3a971d5f4e8c09b506a3fc46c07
four_sliders,morphant,the most unkind<br>person in the world,the most kind<br>person in the world,0.82,7,17368,2,neg_neg_positive,not not kind,kind,unkind,person,cruel,John,male,NA,4d12f3a971d5f4e8c09b506a3fc46c07
four_sliders,morphant,the most unkind<br>person in the world,the most kind<br>person in the world,0.13,7,17368,3,morphant,unkind,kind,unkind,person,cruel,Michael,male,NA,4d12f3a971d5f4e8c09b506a3fc46c07
four_sliders,morphant,the most unkind<br>person in the world,the most kind<br>person in the world,0.82,7,17368,4,neg_morphant,not unkind,kind,unkind,person,cruel,Greg,male,NA,4d12f3a971d5f4e8c09b506a3fc46c07
four_sliders,morphant,the most unkind<br>person in the world,the most kind<br>person in the world,0.87,7,17368,5,positive,kind,kind,unkind,person,cruel,Charles,male,NA,4d12f3a971d5f4e8c09b506a3fc46c07
four_sliders,morphant,the most unhappy<br>person in the world,the most happy<br>person in the world,0.73,8,11296,1,neg_morphant,not unhappy,happy,unhappy,person,sad,Brooke,female,NA,4d12f3a971d5f4e8c09b506a3fc46c07
four_sliders,morphant,the most unhappy<br>person in the world,the most happy<br>person in the world,0.73,8,11296,2,neg_neg_positive,not not happy,happy,unhappy,person,sad,Laura,female,NA,4d12f3a971d5f4e8c09b506a3fc46c07
four_sliders,morphant,the most unhappy<br>person in the world,the most happy<br>person in the world,0.83,8,11296,3,positive,happy,happy,unhappy,person,sad,Andrew,male,NA,4d12f3a971d5f4e8c09b506a3fc46c07
four_sliders,morphant,the most unhappy<br>person in the world,the most happy<br>person in the world,0.16,8,11296,4,morphant,unhappy,happy,unhappy,person,sad,Julia,female,NA,4d12f3a971d5f4e8c09b506a3fc46c07
four_sliders,morphant,the most unhappy<br>person in the world,the most happy<br>person in the world,0.24,8,11296,5,neg_positive,not happy,happy,unhappy,person,sad,Stephen,male,NA,4d12f3a971d5f4e8c09b506a3fc46c07
four_sliders,morphant,the most unintelligent<br>person in the world,the most intelligent<br>person in the world,0.21,1,25764,1,morphant,unintelligent,intelligent,unintelligent,person,stupid,Samuel,male,NA,4a69034f7408ce8a7929016fb08cb869
four_sliders,morphant,the most unintelligent<br>person in the world,the most intelligent<br>person in the world,0.24,1,25764,2,neg_neg_positive,not not intelligent,intelligent,unintelligent,person,stupid,Andrew,male,NA,4a69034f7408ce8a7929016fb08cb869
four_sliders,morphant,the most unintelligent<br>person in the world,the most intelligent<br>person in the world,0.13,1,25764,3,neg_positive,not intelligent,intelligent,unintelligent,person,stupid,Alexander,male,NA,4a69034f7408ce8a7929016fb08cb869
four_sliders,morphant,the most unintelligent<br>person in the world,the most intelligent<br>person in the world,0.54,1,25764,4,neg_morphant,not unintelligent,intelligent,unintelligent,person,stupid,Alison,female,NA,4a69034f7408ce8a7929016fb08cb869
four_sliders,morphant,the most unintelligent<br>person in the world,the most intelligent<br>person in the world,0.88,1,25764,5,positive,intelligent,intelligent,unintelligent,person,stupid,Anthony,male,NA,4a69034f7408ce8a7929016fb08cb869
four_sliders,morphant,the most unambitious<br>person in the world,the most ambitious<br>person in the world,0.25,2,206581,1,morphant,unambitious,ambitious,unambitious,person,lazy,Liam,male,NA,4a69034f7408ce8a7929016fb08cb869
four_sliders,morphant,the most unambitious<br>person in the world,the most ambitious<br>person in the world,0.56,2,206581,2,neg_neg_positive,not not ambitious,ambitious,unambitious,person,lazy,Veronica,female,NA,4a69034f7408ce8a7929016fb08cb869
four_sliders,morphant,the most unambitious<br>person in the world,the most ambitious<br>person in the world,0.9,2,206581,3,positive,ambitious,ambitious,unambitious,person,lazy,Angela,female,NA,4a69034f7408ce8a7929016fb08cb869
four_sliders,morphant,the most unambitious<br>person in the world,the most ambitious<br>person in the world,0.27,2,206581,4,neg_positive,not ambitious,ambitious,unambitious,person,lazy,Claire,female,NA,4a69034f7408ce8a7929016fb08cb869
four_sliders,morphant,the most unambitious<br>person in the world,the most ambitious<br>person in the world,0.44,2,206581,5,neg_morphant,not unambitious,ambitious,unambitious,person,lazy,Kathleen,female,NA,4a69034f7408ce8a7929016fb08cb869
four_sliders,morphant,the most uninteresting<br>person in the world,the most interesting<br>person in the world,0.88,3,24224,1,positive,interesting,interesting,uninteresting,person,boring,Noah,male,NA,4a69034f7408ce8a7929016fb08cb869
four_sliders,morphant,the most uninteresting<br>person in the world,the most interesting<br>person in the world,0.41,3,24224,2,neg_neg_positive,not not interesting,interesting,uninteresting,person,boring,Melinda,female,NA,4a69034f7408ce8a7929016fb08cb869
four_sliders,morphant,the most uninteresting<br>person in the world,the most interesting<br>person in the world,0.3,3,24224,3,neg_morphant,not uninteresting,interesting,uninteresting,person,boring,Tom,male,NA,4a69034f7408ce8a7929016fb08cb869
four_sliders,morphant,the most uninteresting<br>person in the world,the most interesting<br>person in the world,0.17,3,24224,4,morphant,uninteresting,interesting,uninteresting,person,boring,Stephanie,female,NA,4a69034f7408ce8a7929016fb08cb869
four_sliders,morphant,the most uninteresting<br>person in the world,the most interesting<br>person in the world,0.18,3,24224,5,neg_positive,not interesting,interesting,uninteresting,person,boring,Eric,male,NA,4a69034f7408ce8a7929016fb08cb869
four_sliders,morphant,the most unpatriotic<br>person in the world,the most patriotic<br>person in the world,0.62,4,21610,1,neg_morphant,not unpatriotic,patriotic,unpatriotic,person,traitorous,Julia,female,NA,4a69034f7408ce8a7929016fb08cb869
four_sliders,morphant,the most unpatriotic<br>person in the world,the most patriotic<br>person in the world,0.12,4,21610,2,morphant,unpatriotic,patriotic,unpatriotic,person,traitorous,John,male,NA,4a69034f7408ce8a7929016fb08cb869
four_sliders,morphant,the most unpatriotic<br>person in the world,the most patriotic<br>person in the world,0.12,4,21610,3,neg_positive,not patriotic,patriotic,unpatriotic,person,traitorous,Brooke,female,NA,4a69034f7408ce8a7929016fb08cb869
four_sliders,morphant,the most unpatriotic<br>person in the world,the most patriotic<br>person in the world,0.89,4,21610,4,positive,patriotic,patriotic,unpatriotic,person,traitorous,Monica,female,NA,4a69034f7408ce8a7929016fb08cb869
four_sliders,morphant,the most unpatriotic<br>person in the world,the most patriotic<br>person in the world,0.3,4,21610,5,neg_neg_positive,not not patriotic,patriotic,unpatriotic,person,traitorous,Kim,female,NA,4a69034f7408ce8a7929016fb08cb869
four_sliders,morphant,the most unattractive<br>person in the world,the most attractive<br>person in the world,0.33,5,24475,1,neg_neg_positive,not not attractive,attractive,unattractive,person,ugly,Lucas,male,NA,4a69034f7408ce8a7929016fb08cb869
four_sliders,morphant,the most unattractive<br>person in the world,the most attractive<br>person in the world,0.15,5,24475,2,morphant,unattractive,attractive,unattractive,person,ugly,Mason,male,NA,4a69034f7408ce8a7929016fb08cb869
four_sliders,morphant,the most unattractive<br>person in the world,the most attractive<br>person in the world,0.15,5,24475,3,neg_positive,not attractive,attractive,unattractive,person,ugly,Lee,male,NA,4a69034f7408ce8a7929016fb08cb869
four_sliders,morphant,the most unattractive<br>person in the world,the most attractive<br>person in the world,0.53,5,24475,4,neg_morphant,not unattractive,attractive,unattractive,person,ugly,Daniel,male,NA,4a69034f7408ce8a7929016fb08cb869
four_sliders,morphant,the most unattractive<br>person in the world,the most attractive<br>person in the world,0.88,5,24475,5,positive,attractive,attractive,unattractive,person,ugly,Nicole,female,NA,4a69034f7408ce8a7929016fb08cb869
four_sliders,morphant,the most uneducated<br>person in the world,the most educated<br>person in the world,0.1,6,17038,1,morphant,uneducated,educated,uneducated,person,ignorant,Michelle,female,NA,4a69034f7408ce8a7929016fb08cb869
four_sliders,morphant,the most uneducated<br>person in the world,the most educated<br>person in the world,0.49,6,17038,2,neg_neg_positive,not not educated,educated,uneducated,person,ignorant,Sophia,female,NA,4a69034f7408ce8a7929016fb08cb869
four_sliders,morphant,the most uneducated<br>person in the world,the most educated<br>person in the world,0.34,6,17038,3,neg_morphant,not uneducated,educated,uneducated,person,ignorant,Dylan,male,NA,4a69034f7408ce8a7929016fb08cb869
four_sliders,morphant,the most uneducated<br>person in the world,the most educated<br>person in the world,0.15,6,17038,4,neg_positive,not educated,educated,uneducated,person,ignorant,Alicia,female,NA,4a69034f7408ce8a7929016fb08cb869
four_sliders,morphant,the most uneducated<br>person in the world,the most educated<br>person in the world,0.91,6,17038,5,positive,educated,educated,uneducated,person,ignorant,Gabriel,male,NA,4a69034f7408ce8a7929016fb08cb869
four_sliders,morphant,the most ungenerous<br>person in the world,the most generous<br>person in the world,0.87,7,18398,1,positive,generous,generous,ungenerous,person,stingy,Sasha,female,NA,4a69034f7408ce8a7929016fb08cb869
four_sliders,morphant,the most ungenerous<br>person in the world,the most generous<br>person in the world,0.16,7,18398,2,morphant,ungenerous,generous,ungenerous,person,stingy,Jackie,female,NA,4a69034f7408ce8a7929016fb08cb869
four_sliders,morphant,the most ungenerous<br>person in the world,the most generous<br>person in the world,0.39,7,18398,3,neg_neg_positive,not not generous,generous,ungenerous,person,stingy,Emma,female,NA,4a69034f7408ce8a7929016fb08cb869
four_sliders,morphant,the most ungenerous<br>person in the world,the most generous<br>person in the world,0.17,7,18398,4,neg_positive,not generous,generous,ungenerous,person,stingy,Cameron,male,NA,4a69034f7408ce8a7929016fb08cb869
four_sliders,morphant,the most ungenerous<br>person in the world,the most generous<br>person in the world,0.48,7,18398,5,neg_morphant,not ungenerous,generous,ungenerous,person,stingy,William,male,NA,4a69034f7408ce8a7929016fb08cb869
four_sliders,morphant,the most irrational<br>person in the world,the most rational<br>person in the world,0.51,8,45313,1,neg_neg_positive,not not rational,rational,irrational,person,crazy,Amber,female,NA,4a69034f7408ce8a7929016fb08cb869
four_sliders,morphant,the most irrational<br>person in the world,the most rational<br>person in the world,0.68,8,45313,2,neg_morphant,not irrational,rational,irrational,person,crazy,Jacob,male,NA,4a69034f7408ce8a7929016fb08cb869
four_sliders,morphant,the most irrational<br>person in the world,the most rational<br>person in the world,0.18,8,45313,3,neg_positive,not rational,rational,irrational,person,crazy,David,male,NA,4a69034f7408ce8a7929016fb08cb869
four_sliders,morphant,the most irrational<br>person in the world,the most rational<br>person in the world,0.08,8,45313,4,morphant,irrational,rational,irrational,person,crazy,Maya,female,NA,4a69034f7408ce8a7929016fb08cb869
four_sliders,morphant,the most irrational<br>person in the world,the most rational<br>person in the world,0.9,8,45313,5,positive,rational,rational,irrational,person,crazy,Laura,female,NA,4a69034f7408ce8a7929016fb08cb869
four_sliders,morphant,the most uninteresting<br>person in the world,the most interesting<br>person in the world,0.54,1,7523,1,neg_neg_positive,not not interesting,interesting,uninteresting,person,boring,Alison,female,NA,1da1dcc927f5b0b16dda50ecda696a7f
four_sliders,morphant,the most uninteresting<br>person in the world,the most interesting<br>person in the world,0.47,1,7523,2,neg_positive,not interesting,interesting,uninteresting,person,boring,Eric,male,NA,1da1dcc927f5b0b16dda50ecda696a7f
four_sliders,morphant,the most uninteresting<br>person in the world,the most interesting<br>person in the world,0.74,1,7523,3,morphant,uninteresting,interesting,uninteresting,person,boring,Noah,male,NA,1da1dcc927f5b0b16dda50ecda696a7f
four_sliders,morphant,the most uninteresting<br>person in the world,the most interesting<br>person in the world,0.56,1,7523,4,positive,interesting,interesting,uninteresting,person,boring,Stephen,male,NA,1da1dcc927f5b0b16dda50ecda696a7f
four_sliders,morphant,the most uninteresting<br>person in the world,the most interesting<br>person in the world,0.52,1,7523,5,neg_morphant,not uninteresting,interesting,uninteresting,person,boring,Alexander,male,NA,1da1dcc927f5b0b16dda50ecda696a7f
four_sliders,morphant,the most irrational<br>person in the world,the most rational<br>person in the world,0.37,2,4805,1,neg_neg_positive,not not rational,rational,irrational,person,crazy,Melinda,female,NA,1da1dcc927f5b0b16dda50ecda696a7f
four_sliders,morphant,the most irrational<br>person in the world,the most rational<br>person in the world,0.52,2,4805,2,positive,rational,rational,irrational,person,crazy,Charles,male,NA,1da1dcc927f5b0b16dda50ecda696a7f
four_sliders,morphant,the most irrational<br>person in the world,the most rational<br>person in the world,0.37,2,4805,3,neg_morphant,not irrational,rational,irrational,person,crazy,Michelle,female,NA,1da1dcc927f5b0b16dda50ecda696a7f
four_sliders,morphant,the most irrational<br>person in the world,the most rational<br>person in the world,0.54,2,4805,4,neg_positive,not rational,rational,irrational,person,crazy,Stephanie,female,NA,1da1dcc927f5b0b16dda50ecda696a7f
four_sliders,morphant,the most irrational<br>person in the world,the most rational<br>person in the world,0.42,2,4805,5,morphant,irrational,rational,irrational,person,crazy,Jackie,female,NA,1da1dcc927f5b0b16dda50ecda696a7f
four_sliders,morphant,the most unresourceful<br>person in the world,the most resourceful<br>person in the world,0.62,3,9207,1,neg_morphant,not unresourceful,resourceful,unresourceful,person,wasteful,Dylan,male,NA,1da1dcc927f5b0b16dda50ecda696a7f
four_sliders,morphant,the most unresourceful<br>person in the world,the most resourceful<br>person in the world,0.69,3,9207,2,neg_neg_positive,not not resourceful,resourceful,unresourceful,person,wasteful,Alicia,female,NA,1da1dcc927f5b0b16dda50ecda696a7f
four_sliders,morphant,the most unresourceful<br>person in the world,the most resourceful<br>person in the world,0.46,3,9207,3,positive,resourceful,resourceful,unresourceful,person,wasteful,Lucas,male,NA,1da1dcc927f5b0b16dda50ecda696a7f
four_sliders,morphant,the most unresourceful<br>person in the world,the most resourceful<br>person in the world,0.62,3,9207,4,morphant,unresourceful,resourceful,unresourceful,person,wasteful,Julia,female,NA,1da1dcc927f5b0b16dda50ecda696a7f
four_sliders,morphant,the most unresourceful<br>person in the world,the most resourceful<br>person in the world,0.48,3,9207,5,neg_positive,not resourceful,resourceful,unresourceful,person,wasteful,Kim,female,NA,1da1dcc927f5b0b16dda50ecda696a7f
four_sliders,morphant,the most unaffectionate<br>person in the world,the most affectionate<br>person in the world,0.47,4,8488,1,positive,affectionate,affectionate,unaffectionate,person,cold,Monica,female,NA,1da1dcc927f5b0b16dda50ecda696a7f
four_sliders,morphant,the most unaffectionate<br>person in the world,the most affectionate<br>person in the world,0.51,4,8488,2,neg_morphant,not unaffectionate,affectionate,unaffectionate,person,cold,Angela,female,NA,1da1dcc927f5b0b16dda50ecda696a7f
four_sliders,morphant,the most unaffectionate<br>person in the world,the most affectionate<br>person in the world,0.67,4,8488,3,morphant,unaffectionate,affectionate,unaffectionate,person,cold,Greg,male,NA,1da1dcc927f5b0b16dda50ecda696a7f
four_sliders,morphant,the most unaffectionate<br>person in the world,the most affectionate<br>person in the world,0.48,4,8488,4,neg_neg_positive,not not affectionate,affectionate,unaffectionate,person,cold,Claire,female,NA,1da1dcc927f5b0b16dda50ecda696a7f
four_sliders,morphant,the most unaffectionate<br>person in the world,the most affectionate<br>person in the world,0.7,4,8488,5,neg_positive,not affectionate,affectionate,unaffectionate,person,cold,Anthony,male,NA,1da1dcc927f5b0b16dda50ecda696a7f
four_sliders,morphant,the most immature<br>person in the world,the most mature<br>person in the world,0.65,5,8416,1,positive,mature,mature,immature,person,childish,Diana,female,NA,1da1dcc927f5b0b16dda50ecda696a7f
four_sliders,morphant,the most immature<br>person in the world,the most mature<br>person in the world,0.76,5,8416,2,neg_neg_positive,not not mature,mature,immature,person,childish,Maya,female,NA,1da1dcc927f5b0b16dda50ecda696a7f
four_sliders,morphant,the most immature<br>person in the world,the most mature<br>person in the world,0.72,5,8416,3,neg_morphant,not immature,mature,immature,person,childish,Amber,female,NA,1da1dcc927f5b0b16dda50ecda696a7f
four_sliders,morphant,the most immature<br>person in the world,the most mature<br>person in the world,0.58,5,8416,4,morphant,immature,mature,immature,person,childish,Nicole,female,NA,1da1dcc927f5b0b16dda50ecda696a7f
four_sliders,morphant,the most immature<br>person in the world,the most mature<br>person in the world,0.68,5,8416,5,neg_positive,not mature,mature,immature,person,childish,Lee,male,NA,1da1dcc927f5b0b16dda50ecda696a7f
four_sliders,morphant,the most unkind<br>person in the world,the most kind<br>person in the world,0.61,6,6647,1,neg_neg_positive,not not kind,kind,unkind,person,cruel,David,male,NA,1da1dcc927f5b0b16dda50ecda696a7f
four_sliders,morphant,the most unkind<br>person in the world,the most kind<br>person in the world,0.75,6,6647,2,positive,kind,kind,unkind,person,cruel,Daniel,male,NA,1da1dcc927f5b0b16dda50ecda696a7f
four_sliders,morphant,the most unkind<br>person in the world,the most kind<br>person in the world,0.66,6,6647,3,neg_positive,not kind,kind,unkind,person,cruel,William,male,NA,1da1dcc927f5b0b16dda50ecda696a7f
four_sliders,morphant,the most unkind<br>person in the world,the most kind<br>person in the world,0.57,6,6647,4,morphant,unkind,kind,unkind,person,cruel,Michael,male,NA,1da1dcc927f5b0b16dda50ecda696a7f
four_sliders,morphant,the most unkind<br>person in the world,the most kind<br>person in the world,0.73,6,6647,5,neg_morphant,not unkind,kind,unkind,person,cruel,Liam,male,NA,1da1dcc927f5b0b16dda50ecda696a7f
four_sliders,morphant,the most unforgiving<br>person in the world,the most forgiving<br>person in the world,0.51,7,5257,1,neg_morphant,not unforgiving,forgiving,unforgiving,person,resentful,Brooke,female,NA,1da1dcc927f5b0b16dda50ecda696a7f
four_sliders,morphant,the most unforgiving<br>person in the world,the most forgiving<br>person in the world,0.81,7,5257,2,positive,forgiving,forgiving,unforgiving,person,resentful,Kathleen,female,NA,1da1dcc927f5b0b16dda50ecda696a7f
four_sliders,morphant,the most unforgiving<br>person in the world,the most forgiving<br>person in the world,0.75,7,5257,3,neg_neg_positive,not not forgiving,forgiving,unforgiving,person,resentful,Mia,female,NA,1da1dcc927f5b0b16dda50ecda696a7f
four_sliders,morphant,the most unforgiving<br>person in the world,the most forgiving<br>person in the world,0.57,7,5257,4,neg_positive,not forgiving,forgiving,unforgiving,person,resentful,Jeremy,male,NA,1da1dcc927f5b0b16dda50ecda696a7f
four_sliders,morphant,the most unforgiving<br>person in the world,the most forgiving<br>person in the world,0.74,7,5257,5,morphant,unforgiving,forgiving,unforgiving,person,resentful,Laura,female,NA,1da1dcc927f5b0b16dda50ecda696a7f
four_sliders,morphant,the most unreliable<br>person in the world,the most reliable<br>person in the world,0.42,8,4949,1,neg_morphant,not unreliable,reliable,unreliable,person,flaky,Jacob,male,NA,1da1dcc927f5b0b16dda50ecda696a7f
four_sliders,morphant,the most unreliable<br>person in the world,the most reliable<br>person in the world,0.56,8,4949,2,morphant,unreliable,reliable,unreliable,person,flaky,Mason,male,NA,1da1dcc927f5b0b16dda50ecda696a7f
four_sliders,morphant,the most unreliable<br>person in the world,the most reliable<br>person in the world,0.49,8,4949,3,positive,reliable,reliable,unreliable,person,flaky,Cameron,male,NA,1da1dcc927f5b0b16dda50ecda696a7f
four_sliders,morphant,the most unreliable<br>person in the world,the most reliable<br>person in the world,0.58,8,4949,4,neg_positive,not reliable,reliable,unreliable,person,flaky,Jennifer,female,NA,1da1dcc927f5b0b16dda50ecda696a7f
four_sliders,morphant,the most unreliable<br>person in the world,the most reliable<br>person in the world,0.65,8,4949,5,neg_neg_positive,not not reliable,reliable,unreliable,person,flaky,Sasha,female,NA,1da1dcc927f5b0b16dda50ecda696a7f
four_sliders,morphant,the most ungenerous<br>person in the world,the most generous<br>person in the world,0.61,1,24927,1,neg_morphant,not ungenerous,generous,ungenerous,person,stingy,Emma,female,NA,cfd5adac125eaf5d7105b4c6688e7965
four_sliders,morphant,the most ungenerous<br>person in the world,the most generous<br>person in the world,0.5,1,24927,2,positive,generous,generous,ungenerous,person,stingy,Lee,male,NA,cfd5adac125eaf5d7105b4c6688e7965
four_sliders,morphant,the most ungenerous<br>person in the world,the most generous<br>person in the world,0.85,1,24927,3,neg_positive,not generous,generous,ungenerous,person,stingy,Kathleen,female,NA,cfd5adac125eaf5d7105b4c6688e7965
four_sliders,morphant,the most ungenerous<br>person in the world,the most generous<br>person in the world,0.35,1,24927,4,morphant,ungenerous,generous,ungenerous,person,stingy,Mia,female,NA,cfd5adac125eaf5d7105b4c6688e7965
four_sliders,morphant,the most ungenerous<br>person in the world,the most generous<br>person in the world,0.63,1,24927,5,neg_neg_positive,not not generous,generous,ungenerous,person,stingy,Alexander,male,NA,cfd5adac125eaf5d7105b4c6688e7965
four_sliders,morphant,the most unhappy<br>person in the world,the most happy<br>person in the world,0.55,2,46929,1,neg_neg_positive,not not happy,happy,unhappy,person,sad,Kim,female,NA,cfd5adac125eaf5d7105b4c6688e7965
four_sliders,morphant,the most unhappy<br>person in the world,the most happy<br>person in the world,0.37,2,46929,2,neg_morphant,not unhappy,happy,unhappy,person,sad,Laura,female,NA,cfd5adac125eaf5d7105b4c6688e7965
four_sliders,morphant,the most unhappy<br>person in the world,the most happy<br>person in the world,0.76,2,46929,3,positive,happy,happy,unhappy,person,sad,Angela,female,NA,cfd5adac125eaf5d7105b4c6688e7965
four_sliders,morphant,the most unhappy<br>person in the world,the most happy<br>person in the world,0.6,2,46929,4,morphant,unhappy,happy,unhappy,person,sad,Samuel,male,NA,cfd5adac125eaf5d7105b4c6688e7965
four_sliders,morphant,the most unhappy<br>person in the world,the most happy<br>person in the world,0.69,2,46929,5,neg_positive,not happy,happy,unhappy,person,sad,Michael,male,NA,cfd5adac125eaf5d7105b4c6688e7965
four_sliders,morphant,the most dishonest<br>person in the world,the most honest<br>person in the world,0.51,3,19437,1,neg_neg_positive,not not honest,honest,dishonest,person,deceitful,Alison,female,NA,cfd5adac125eaf5d7105b4c6688e7965
four_sliders,morphant,the most dishonest<br>person in the world,the most honest<br>person in the world,0.25,3,19437,2,neg_positive,not honest,honest,dishonest,person,deceitful,Stephanie,female,NA,cfd5adac125eaf5d7105b4c6688e7965
four_sliders,morphant,the most dishonest<br>person in the world,the most honest<br>person in the world,0.69,3,19437,3,neg_morphant,not dishonest,honest,dishonest,person,deceitful,Charles,male,NA,cfd5adac125eaf5d7105b4c6688e7965
four_sliders,morphant,the most dishonest<br>person in the world,the most honest<br>person in the world,0.59,3,19437,4,positive,honest,honest,dishonest,person,deceitful,Veronica,female,NA,cfd5adac125eaf5d7105b4c6688e7965
four_sliders,morphant,the most dishonest<br>person in the world,the most honest<br>person in the world,0.68,3,19437,5,morphant,dishonest,honest,dishonest,person,deceitful,Brooke,female,NA,cfd5adac125eaf5d7105b4c6688e7965
four_sliders,morphant,the most impolite<br>person in the world,the most polite<br>person in the world,0.74,4,18738,1,morphant,impolite,polite,impolite,person,rude,Cameron,male,NA,cfd5adac125eaf5d7105b4c6688e7965
four_sliders,morphant,the most impolite<br>person in the world,the most polite<br>person in the world,0.26,4,18738,2,positive,polite,polite,impolite,person,rude,Greg,male,NA,cfd5adac125eaf5d7105b4c6688e7965
four_sliders,morphant,the most impolite<br>person in the world,the most polite<br>person in the world,0.41,4,18738,3,neg_neg_positive,not not polite,polite,impolite,person,rude,Lucas,male,NA,cfd5adac125eaf5d7105b4c6688e7965
four_sliders,morphant,the most impolite<br>person in the world,the most polite<br>person in the world,0.82,4,18738,4,neg_morphant,not impolite,polite,impolite,person,rude,Nicole,female,NA,cfd5adac125eaf5d7105b4c6688e7965
four_sliders,morphant,the most impolite<br>person in the world,the most polite<br>person in the world,0.62,4,18738,5,neg_positive,not polite,polite,impolite,person,rude,Tom,male,NA,cfd5adac125eaf5d7105b4c6688e7965
four_sliders,morphant,the most uneducated<br>person in the world,the most educated<br>person in the world,0.49,5,10477,1,positive,educated,educated,uneducated,person,ignorant,David,male,NA,cfd5adac125eaf5d7105b4c6688e7965
four_sliders,morphant,the most uneducated<br>person in the world,the most educated<br>person in the world,0.72,5,10477,2,neg_neg_positive,not not educated,educated,uneducated,person,ignorant,Amber,female,NA,cfd5adac125eaf5d7105b4c6688e7965
four_sliders,morphant,the most uneducated<br>person in the world,the most educated<br>person in the world,0.59,5,10477,3,neg_morphant,not uneducated,educated,uneducated,person,ignorant,Mason,male,NA,cfd5adac125eaf5d7105b4c6688e7965
four_sliders,morphant,the most uneducated<br>person in the world,the most educated<br>person in the world,0.79,5,10477,4,neg_positive,not educated,educated,uneducated,person,ignorant,Stephen,male,NA,cfd5adac125eaf5d7105b4c6688e7965
four_sliders,morphant,the most uneducated<br>person in the world,the most educated<br>person in the world,0.4,5,10477,5,morphant,uneducated,educated,uneducated,person,ignorant,Maya,female,NA,cfd5adac125eaf5d7105b4c6688e7965
four_sliders,morphant,the most unpatriotic<br>person in the world,the most patriotic<br>person in the world,0.61,6,9658,1,positive,patriotic,patriotic,unpatriotic,person,traitorous,Claire,female,NA,cfd5adac125eaf5d7105b4c6688e7965
four_sliders,morphant,the most unpatriotic<br>person in the world,the most patriotic<br>person in the world,0.43,6,9658,2,morphant,unpatriotic,patriotic,unpatriotic,person,traitorous,Michelle,female,NA,cfd5adac125eaf5d7105b4c6688e7965
four_sliders,morphant,the most unpatriotic<br>person in the world,the most patriotic<br>person in the world,0.55,6,9658,3,neg_positive,not patriotic,patriotic,unpatriotic,person,traitorous,Diana,female,NA,cfd5adac125eaf5d7105b4c6688e7965
four_sliders,morphant,the most unpatriotic<br>person in the world,the most patriotic<br>person in the world,0.26,6,9658,4,neg_neg_positive,not not patriotic,patriotic,unpatriotic,person,traitorous,Alicia,female,NA,cfd5adac125eaf5d7105b4c6688e7965
four_sliders,morphant,the most unpatriotic<br>person in the world,the most patriotic<br>person in the world,0.78,6,9658,5,neg_morphant,not unpatriotic,patriotic,unpatriotic,person,traitorous,Dylan,male,NA,cfd5adac125eaf5d7105b4c6688e7965
four_sliders,morphant,the most immature<br>person in the world,the most mature<br>person in the world,0.68,7,5947,1,positive,mature,mature,immature,person,childish,Andrew,male,NA,cfd5adac125eaf5d7105b4c6688e7965
four_sliders,morphant,the most immature<br>person in the world,the most mature<br>person in the world,0.52,7,5947,2,neg_positive,not mature,mature,immature,person,childish,Sasha,female,NA,cfd5adac125eaf5d7105b4c6688e7965
four_sliders,morphant,the most immature<br>person in the world,the most mature<br>person in the world,0.76,7,5947,3,morphant,immature,mature,immature,person,childish,William,male,NA,cfd5adac125eaf5d7105b4c6688e7965
four_sliders,morphant,the most immature<br>person in the world,the most mature<br>person in the world,0.76,7,5947,4,neg_morphant,not immature,mature,immature,person,childish,Melinda,female,NA,cfd5adac125eaf5d7105b4c6688e7965
four_sliders,morphant,the most immature<br>person in the world,the most mature<br>person in the world,0.64,7,5947,5,neg_neg_positive,not not mature,mature,immature,person,childish,Jennifer,female,NA,cfd5adac125eaf5d7105b4c6688e7965
four_sliders,morphant,the most irrational<br>person in the world,the most rational<br>person in the world,0.39,8,6138,1,positive,rational,rational,irrational,person,crazy,Liam,male,NA,cfd5adac125eaf5d7105b4c6688e7965
four_sliders,morphant,the most irrational<br>person in the world,the most rational<br>person in the world,0.45,8,6138,2,neg_positive,not rational,rational,irrational,person,crazy,Anthony,male,NA,cfd5adac125eaf5d7105b4c6688e7965
four_sliders,morphant,the most irrational<br>person in the world,the most rational<br>person in the world,0.88,8,6138,3,neg_neg_positive,not not rational,rational,irrational,person,crazy,Monica,female,NA,cfd5adac125eaf5d7105b4c6688e7965
four_sliders,morphant,the most irrational<br>person in the world,the most rational<br>person in the world,0.66,8,6138,4,morphant,irrational,rational,irrational,person,crazy,Jeremy,male,NA,cfd5adac125eaf5d7105b4c6688e7965
four_sliders,morphant,the most irrational<br>person in the world,the most rational<br>person in the world,0.54,8,6138,5,neg_morphant,not irrational,rational,irrational,person,crazy,John,male,NA,cfd5adac125eaf5d7105b4c6688e7965
four_sliders,morphant,the most unresourceful<br>person in the world,the most resourceful<br>person in the world,0.59,1,41774,1,positive,resourceful,resourceful,unresourceful,person,wasteful,Daniel,male,NA,64cde64385e29419acd0332fa9d00fd2
four_sliders,morphant,the most unresourceful<br>person in the world,the most resourceful<br>person in the world,0.42,1,41774,2,morphant,unresourceful,resourceful,unresourceful,person,wasteful,Mia,female,NA,64cde64385e29419acd0332fa9d00fd2
four_sliders,morphant,the most unresourceful<br>person in the world,the most resourceful<br>person in the world,0.39,1,41774,3,neg_positive,not resourceful,resourceful,unresourceful,person,wasteful,Sophia,female,NA,64cde64385e29419acd0332fa9d00fd2
four_sliders,morphant,the most unresourceful<br>person in the world,the most resourceful<br>person in the world,0.52,1,41774,4,neg_neg_positive,not not resourceful,resourceful,unresourceful,person,wasteful,Alicia,female,NA,64cde64385e29419acd0332fa9d00fd2
four_sliders,morphant,the most unresourceful<br>person in the world,the most resourceful<br>person in the world,0.56,1,41774,5,neg_morphant,not unresourceful,resourceful,unresourceful,person,wasteful,Greg,male,NA,64cde64385e29419acd0332fa9d00fd2
four_sliders,morphant,the most unreliable<br>person in the world,the most reliable<br>person in the world,0.44,2,28330,1,neg_positive,not reliable,reliable,unreliable,person,flaky,Alison,female,NA,64cde64385e29419acd0332fa9d00fd2
four_sliders,morphant,the most unreliable<br>person in the world,the most reliable<br>person in the world,0.56,2,28330,2,neg_morphant,not unreliable,reliable,unreliable,person,flaky,Gabriel,male,NA,64cde64385e29419acd0332fa9d00fd2
four_sliders,morphant,the most unreliable<br>person in the world,the most reliable<br>person in the world,0.52,2,28330,3,neg_neg_positive,not not reliable,reliable,unreliable,person,flaky,Jackie,female,NA,64cde64385e29419acd0332fa9d00fd2
four_sliders,morphant,the most unreliable<br>person in the world,the most reliable<br>person in the world,0.47,2,28330,4,morphant,unreliable,reliable,unreliable,person,flaky,Stephen,male,NA,64cde64385e29419acd0332fa9d00fd2
four_sliders,morphant,the most unreliable<br>person in the world,the most reliable<br>person in the world,0.63,2,28330,5,positive,reliable,reliable,unreliable,person,flaky,Andrew,male,NA,64cde64385e29419acd0332fa9d00fd2
four_sliders,morphant,the most unaffectionate<br>person in the world,the most affectionate<br>person in the world,0.44,3,17197,1,neg_positive,not affectionate,affectionate,unaffectionate,person,cold,Alexander,male,NA,64cde64385e29419acd0332fa9d00fd2
four_sliders,morphant,the most unaffectionate<br>person in the world,the most affectionate<br>person in the world,0.53,3,17197,2,neg_neg_positive,not not affectionate,affectionate,unaffectionate,person,cold,Laura,female,NA,64cde64385e29419acd0332fa9d00fd2
four_sliders,morphant,the most unaffectionate<br>person in the world,the most affectionate<br>person in the world,0.65,3,17197,3,positive,affectionate,affectionate,unaffectionate,person,cold,Brooke,female,NA,64cde64385e29419acd0332fa9d00fd2
four_sliders,morphant,the most unaffectionate<br>person in the world,the most affectionate<br>person in the world,0.61,3,17197,4,neg_morphant,not unaffectionate,affectionate,unaffectionate,person,cold,Tom,male,NA,64cde64385e29419acd0332fa9d00fd2
four_sliders,morphant,the most unaffectionate<br>person in the world,the most affectionate<br>person in the world,0.46,3,17197,5,morphant,unaffectionate,affectionate,unaffectionate,person,cold,Nicole,female,NA,64cde64385e29419acd0332fa9d00fd2
four_sliders,morphant,the most unpatriotic<br>person in the world,the most patriotic<br>person in the world,0.57,4,14838,1,neg_morphant,not unpatriotic,patriotic,unpatriotic,person,traitorous,Kathleen,female,NA,64cde64385e29419acd0332fa9d00fd2
four_sliders,morphant,the most unpatriotic<br>person in the world,the most patriotic<br>person in the world,0.62,4,14838,2,positive,patriotic,patriotic,unpatriotic,person,traitorous,Noah,male,NA,64cde64385e29419acd0332fa9d00fd2
four_sliders,morphant,the most unpatriotic<br>person in the world,the most patriotic<br>person in the world,0.42,4,14838,3,neg_positive,not patriotic,patriotic,unpatriotic,person,traitorous,Jacob,male,NA,64cde64385e29419acd0332fa9d00fd2
four_sliders,morphant,the most unpatriotic<br>person in the world,the most patriotic<br>person in the world,0.54,4,14838,4,neg_neg_positive,not not patriotic,patriotic,unpatriotic,person,traitorous,William,male,NA,64cde64385e29419acd0332fa9d00fd2
four_sliders,morphant,the most unpatriotic<br>person in the world,the most patriotic<br>person in the world,0.43,4,14838,5,morphant,unpatriotic,patriotic,unpatriotic,person,traitorous,Melinda,female,NA,64cde64385e29419acd0332fa9d00fd2
four_sliders,morphant,the most intolerant<br>person in the world,the most tolerant<br>person in the world,0.52,5,14452,1,neg_neg_positive,not not tolerant,tolerant,intolerant,person,bigoted,Maya,female,NA,64cde64385e29419acd0332fa9d00fd2
four_sliders,morphant,the most intolerant<br>person in the world,the most tolerant<br>person in the world,0.38,5,14452,2,morphant,intolerant,tolerant,intolerant,person,bigoted,Lee,male,NA,64cde64385e29419acd0332fa9d00fd2
four_sliders,morphant,the most intolerant<br>person in the world,the most tolerant<br>person in the world,0.41,5,14452,3,neg_positive,not tolerant,tolerant,intolerant,person,bigoted,David,male,NA,64cde64385e29419acd0332fa9d00fd2
four_sliders,morphant,the most intolerant<br>person in the world,the most tolerant<br>person in the world,0.55,5,14452,4,neg_morphant,not intolerant,tolerant,intolerant,person,bigoted,Eric,male,NA,64cde64385e29419acd0332fa9d00fd2
four_sliders,morphant,the most intolerant<br>person in the world,the most tolerant<br>person in the world,0.6,5,14452,5,positive,tolerant,tolerant,intolerant,person,bigoted,Mason,male,NA,64cde64385e29419acd0332fa9d00fd2
four_sliders,morphant,the most immature<br>person in the world,the most mature<br>person in the world,0.6,6,17473,1,positive,mature,mature,immature,person,childish,Emma,female,NA,64cde64385e29419acd0332fa9d00fd2
four_sliders,morphant,the most immature<br>person in the world,the most mature<br>person in the world,0.52,6,17473,2,neg_neg_positive,not not mature,mature,immature,person,childish,Lucas,male,NA,64cde64385e29419acd0332fa9d00fd2
four_sliders,morphant,the most immature<br>person in the world,the most mature<br>person in the world,0.39,6,17473,3,neg_positive,not mature,mature,immature,person,childish,Liam,male,NA,64cde64385e29419acd0332fa9d00fd2
four_sliders,morphant,the most immature<br>person in the world,the most mature<br>person in the world,0.38,6,17473,4,morphant,immature,mature,immature,person,childish,Anthony,male,NA,64cde64385e29419acd0332fa9d00fd2
four_sliders,morphant,the most immature<br>person in the world,the most mature<br>person in the world,0.56,6,17473,5,neg_morphant,not immature,mature,immature,person,childish,John,male,NA,64cde64385e29419acd0332fa9d00fd2
four_sliders,morphant,the most uneducated<br>person in the world,the most educated<br>person in the world,0.42,7,16932,1,morphant,uneducated,educated,uneducated,person,ignorant,Cameron,male,NA,64cde64385e29419acd0332fa9d00fd2
four_sliders,morphant,the most uneducated<br>person in the world,the most educated<br>person in the world,0.53,7,16932,2,neg_morphant,not uneducated,educated,uneducated,person,ignorant,Amber,female,NA,64cde64385e29419acd0332fa9d00fd2
four_sliders,morphant,the most uneducated<br>person in the world,the most educated<br>person in the world,0.55,7,16932,3,neg_neg_positive,not not educated,educated,uneducated,person,ignorant,Kim,female,NA,64cde64385e29419acd0332fa9d00fd2
four_sliders,morphant,the most uneducated<br>person in the world,the most educated<br>person in the world,0.63,7,16932,4,positive,educated,educated,uneducated,person,ignorant,Monica,female,NA,64cde64385e29419acd0332fa9d00fd2
four_sliders,morphant,the most uneducated<br>person in the world,the most educated<br>person in the world,0.42,7,16932,5,neg_positive,not educated,educated,uneducated,person,ignorant,Stephanie,female,NA,64cde64385e29419acd0332fa9d00fd2
four_sliders,morphant,the most unambitious<br>person in the world,the most ambitious<br>person in the world,0.36,8,13037,1,neg_positive,not ambitious,ambitious,unambitious,person,lazy,Julia,female,NA,64cde64385e29419acd0332fa9d00fd2
four_sliders,morphant,the most unambitious<br>person in the world,the most ambitious<br>person in the world,0.56,8,13037,2,neg_morphant,not unambitious,ambitious,unambitious,person,lazy,Michael,male,NA,64cde64385e29419acd0332fa9d00fd2
four_sliders,morphant,the most unambitious<br>person in the world,the most ambitious<br>person in the world,0.65,8,13037,3,positive,ambitious,ambitious,unambitious,person,lazy,Michelle,female,NA,64cde64385e29419acd0332fa9d00fd2
four_sliders,morphant,the most unambitious<br>person in the world,the most ambitious<br>person in the world,0.55,8,13037,4,neg_neg_positive,not not ambitious,ambitious,unambitious,person,lazy,Veronica,female,NA,64cde64385e29419acd0332fa9d00fd2
four_sliders,morphant,the most unambitious<br>person in the world,the most ambitious<br>person in the world,0.37,8,13037,5,morphant,unambitious,ambitious,unambitious,person,lazy,Charles,male,NA,64cde64385e29419acd0332fa9d00fd2
four_sliders,morphant,the most unkind<br>person in the world,the most kind<br>person in the world,0.32,1,113168,1,neg_neg_positive,not not kind,kind,unkind,person,cruel,Jackie,female,NA,ddd51b66bf66fe2828c8a86d59403c49
four_sliders,morphant,the most unkind<br>person in the world,the most kind<br>person in the world,0.08,1,113168,2,morphant,unkind,kind,unkind,person,cruel,Michael,male,NA,ddd51b66bf66fe2828c8a86d59403c49
four_sliders,morphant,the most unkind<br>person in the world,the most kind<br>person in the world,0.94,1,113168,3,positive,kind,kind,unkind,person,cruel,Brooke,female,NA,ddd51b66bf66fe2828c8a86d59403c49
four_sliders,morphant,the most unkind<br>person in the world,the most kind<br>person in the world,0.79,1,113168,4,neg_morphant,not unkind,kind,unkind,person,cruel,Kim,female,NA,ddd51b66bf66fe2828c8a86d59403c49
four_sliders,morphant,the most unkind<br>person in the world,the most kind<br>person in the world,0.14,1,113168,5,neg_positive,not kind,kind,unkind,person,cruel,Diana,female,NA,ddd51b66bf66fe2828c8a86d59403c49
four_sliders,morphant,the most unattractive<br>person in the world,the most attractive<br>person in the world,0.23,2,123151,1,neg_positive,not attractive,attractive,unattractive,person,ugly,Sophia,female,NA,ddd51b66bf66fe2828c8a86d59403c49
four_sliders,morphant,the most unattractive<br>person in the world,the most attractive<br>person in the world,0.84,2,123151,2,positive,attractive,attractive,unattractive,person,ugly,Andrew,male,NA,ddd51b66bf66fe2828c8a86d59403c49
four_sliders,morphant,the most unattractive<br>person in the world,the most attractive<br>person in the world,0.39,2,123151,3,neg_neg_positive,not not attractive,attractive,unattractive,person,ugly,Claire,female,NA,ddd51b66bf66fe2828c8a86d59403c49
four_sliders,morphant,the most unattractive<br>person in the world,the most attractive<br>person in the world,0.83,2,123151,4,neg_morphant,not unattractive,attractive,unattractive,person,ugly,Tom,male,NA,ddd51b66bf66fe2828c8a86d59403c49
four_sliders,morphant,the most unattractive<br>person in the world,the most attractive<br>person in the world,0.2,2,123151,5,morphant,unattractive,attractive,unattractive,person,ugly,Angela,female,NA,ddd51b66bf66fe2828c8a86d59403c49
four_sliders,morphant,the most ungenerous<br>person in the world,the most generous<br>person in the world,0.17,3,43022,1,morphant,ungenerous,generous,ungenerous,person,stingy,David,male,NA,ddd51b66bf66fe2828c8a86d59403c49
four_sliders,morphant,the most ungenerous<br>person in the world,the most generous<br>person in the world,0.49,3,43022,2,neg_neg_positive,not not generous,generous,ungenerous,person,stingy,Stephen,male,NA,ddd51b66bf66fe2828c8a86d59403c49
four_sliders,morphant,the most ungenerous<br>person in the world,the most generous<br>person in the world,0.83,3,43022,3,neg_morphant,not ungenerous,generous,ungenerous,person,stingy,Greg,male,NA,ddd51b66bf66fe2828c8a86d59403c49
four_sliders,morphant,the most ungenerous<br>person in the world,the most generous<br>person in the world,0.12,3,43022,4,neg_positive,not generous,generous,ungenerous,person,stingy,Maya,female,NA,ddd51b66bf66fe2828c8a86d59403c49
four_sliders,morphant,the most ungenerous<br>person in the world,the most generous<br>person in the world,0.85,3,43022,5,positive,generous,generous,ungenerous,person,stingy,Monica,female,NA,ddd51b66bf66fe2828c8a86d59403c49
four_sliders,morphant,the most unhappy<br>person in the world,the most happy<br>person in the world,0.21,4,19442,1,neg_neg_positive,not not happy,happy,unhappy,person,sad,Jennifer,female,NA,ddd51b66bf66fe2828c8a86d59403c49
four_sliders,morphant,the most unhappy<br>person in the world,the most happy<br>person in the world,0.86,4,19442,2,neg_morphant,not unhappy,happy,unhappy,person,sad,William,male,NA,ddd51b66bf66fe2828c8a86d59403c49
four_sliders,morphant,the most unhappy<br>person in the world,the most happy<br>person in the world,0.92,4,19442,3,positive,happy,happy,unhappy,person,sad,Jeremy,male,NA,ddd51b66bf66fe2828c8a86d59403c49
four_sliders,morphant,the most unhappy<br>person in the world,the most happy<br>person in the world,0.16,4,19442,4,neg_positive,not happy,happy,unhappy,person,sad,Mason,male,NA,ddd51b66bf66fe2828c8a86d59403c49
four_sliders,morphant,the most unhappy<br>person in the world,the most happy<br>person in the world,0.15,4,19442,5,morphant,unhappy,happy,unhappy,person,sad,Samuel,male,NA,ddd51b66bf66fe2828c8a86d59403c49
four_sliders,morphant,the most impolite<br>person in the world,the most polite<br>person in the world,0.18,5,21229,1,neg_neg_positive,not not polite,polite,impolite,person,rude,Michelle,female,NA,ddd51b66bf66fe2828c8a86d59403c49
four_sliders,morphant,the most impolite<br>person in the world,the most polite<br>person in the world,0.24,5,21229,2,morphant,impolite,polite,impolite,person,rude,Noah,male,NA,ddd51b66bf66fe2828c8a86d59403c49
four_sliders,morphant,the most impolite<br>person in the world,the most polite<br>person in the world,0.77,5,21229,3,neg_morphant,not impolite,polite,impolite,person,rude,Julia,female,NA,ddd51b66bf66fe2828c8a86d59403c49
four_sliders,morphant,the most impolite<br>person in the world,the most polite<br>person in the world,0.21,5,21229,4,neg_positive,not polite,polite,impolite,person,rude,Nicole,female,NA,ddd51b66bf66fe2828c8a86d59403c49
four_sliders,morphant,the most impolite<br>person in the world,the most polite<br>person in the world,0.83,5,21229,5,positive,polite,polite,impolite,person,rude,Cameron,male,NA,ddd51b66bf66fe2828c8a86d59403c49
four_sliders,morphant,the most insincere<br>person in the world,the most sincere<br>person in the world,0.13,6,44568,1,morphant,insincere,sincere,insincere,person,fake,John,male,NA,ddd51b66bf66fe2828c8a86d59403c49
four_sliders,morphant,the most insincere<br>person in the world,the most sincere<br>person in the world,0.88,6,44568,2,positive,sincere,sincere,insincere,person,fake,Anthony,male,NA,ddd51b66bf66fe2828c8a86d59403c49
four_sliders,morphant,the most insincere<br>person in the world,the most sincere<br>person in the world,0.87,6,44568,3,neg_morphant,not insincere,sincere,insincere,person,fake,Mia,female,NA,ddd51b66bf66fe2828c8a86d59403c49
four_sliders,morphant,the most insincere<br>person in the world,the most sincere<br>person in the world,0.12,6,44568,4,neg_positive,not sincere,sincere,insincere,person,fake,Emma,female,NA,ddd51b66bf66fe2828c8a86d59403c49
four_sliders,morphant,the most insincere<br>person in the world,the most sincere<br>person in the world,0.2,6,44568,5,neg_neg_positive,not not sincere,sincere,insincere,person,fake,Kathleen,female,NA,ddd51b66bf66fe2828c8a86d59403c49
four_sliders,morphant,the most unaffectionate<br>person in the world,the most affectionate<br>person in the world,0.18,7,19786,1,morphant,unaffectionate,affectionate,unaffectionate,person,cold,Amber,female,NA,ddd51b66bf66fe2828c8a86d59403c49
four_sliders,morphant,the most unaffectionate<br>person in the world,the most affectionate<br>person in the world,0.83,7,19786,2,neg_morphant,not unaffectionate,affectionate,unaffectionate,person,cold,Sasha,female,NA,ddd51b66bf66fe2828c8a86d59403c49
four_sliders,morphant,the most unaffectionate<br>person in the world,the most affectionate<br>person in the world,0.16,7,19786,3,neg_positive,not affectionate,affectionate,unaffectionate,person,cold,Alison,female,NA,ddd51b66bf66fe2828c8a86d59403c49
four_sliders,morphant,the most unaffectionate<br>person in the world,the most affectionate<br>person in the world,0.14,7,19786,4,neg_neg_positive,not not affectionate,affectionate,unaffectionate,person,cold,Veronica,female,NA,ddd51b66bf66fe2828c8a86d59403c49
four_sliders,morphant,the most unaffectionate<br>person in the world,the most affectionate<br>person in the world,0.84,7,19786,5,positive,affectionate,affectionate,unaffectionate,person,cold,Jacob,male,NA,ddd51b66bf66fe2828c8a86d59403c49
four_sliders,morphant,the most intolerant<br>person in the world,the most tolerant<br>person in the world,0.85,8,38799,1,neg_morphant,not intolerant,tolerant,intolerant,person,bigoted,Lucas,male,NA,ddd51b66bf66fe2828c8a86d59403c49
four_sliders,morphant,the most intolerant<br>person in the world,the most tolerant<br>person in the world,0.83,8,38799,2,positive,tolerant,tolerant,intolerant,person,bigoted,Alexander,male,NA,ddd51b66bf66fe2828c8a86d59403c49
four_sliders,morphant,the most intolerant<br>person in the world,the most tolerant<br>person in the world,0.11,8,38799,3,neg_neg_positive,not not tolerant,tolerant,intolerant,person,bigoted,Laura,female,NA,ddd51b66bf66fe2828c8a86d59403c49
four_sliders,morphant,the most intolerant<br>person in the world,the most tolerant<br>person in the world,0.11,8,38799,4,morphant,intolerant,tolerant,intolerant,person,bigoted,Lee,male,NA,ddd51b66bf66fe2828c8a86d59403c49
four_sliders,morphant,the most intolerant<br>person in the world,the most tolerant<br>person in the world,0.17,8,38799,5,neg_positive,not tolerant,tolerant,intolerant,person,bigoted,Stephanie,female,NA,ddd51b66bf66fe2828c8a86d59403c49
four_sliders,morphant,the most ungenerous<br>person in the world,the most generous<br>person in the world,0.21,1,11596,1,neg_neg_positive,not not generous,generous,ungenerous,person,stingy,Claire,female,NA,d0f133c5ca6fb4aaba09109030e15d39
four_sliders,morphant,the most ungenerous<br>person in the world,the most generous<br>person in the world,0.35,1,11596,2,morphant,ungenerous,generous,ungenerous,person,stingy,Veronica,female,NA,d0f133c5ca6fb4aaba09109030e15d39
four_sliders,morphant,the most ungenerous<br>person in the world,the most generous<br>person in the world,0.5,1,11596,3,positive,generous,generous,ungenerous,person,stingy,David,male,NA,d0f133c5ca6fb4aaba09109030e15d39
four_sliders,morphant,the most ungenerous<br>person in the world,the most generous<br>person in the world,0.39,1,11596,4,neg_morphant,not ungenerous,generous,ungenerous,person,stingy,Lucas,male,NA,d0f133c5ca6fb4aaba09109030e15d39
four_sliders,morphant,the most ungenerous<br>person in the world,the most generous<br>person in the world,0.5,1,11596,5,neg_positive,not generous,generous,ungenerous,person,stingy,Tom,male,NA,d0f133c5ca6fb4aaba09109030e15d39
four_sliders,morphant,the most intolerant<br>person in the world,the most tolerant<br>person in the world,0.19,2,21103,1,neg_positive,not tolerant,tolerant,intolerant,person,bigoted,Andrew,male,NA,d0f133c5ca6fb4aaba09109030e15d39
four_sliders,morphant,the most intolerant<br>person in the world,the most tolerant<br>person in the world,0.29,2,21103,2,positive,tolerant,tolerant,intolerant,person,bigoted,Laura,female,NA,d0f133c5ca6fb4aaba09109030e15d39
four_sliders,morphant,the most intolerant<br>person in the world,the most tolerant<br>person in the world,0.38,2,21103,3,neg_neg_positive,not not tolerant,tolerant,intolerant,person,bigoted,Liam,male,NA,d0f133c5ca6fb4aaba09109030e15d39
four_sliders,morphant,the most intolerant<br>person in the world,the most tolerant<br>person in the world,0.5,2,21103,4,neg_morphant,not intolerant,tolerant,intolerant,person,bigoted,Amber,female,NA,d0f133c5ca6fb4aaba09109030e15d39
four_sliders,morphant,the most intolerant<br>person in the world,the most tolerant<br>person in the world,0.41,2,21103,5,morphant,intolerant,tolerant,intolerant,person,bigoted,Cameron,male,NA,d0f133c5ca6fb4aaba09109030e15d39
four_sliders,morphant,the most unaffectionate<br>person in the world,the most affectionate<br>person in the world,0.4,3,12334,1,neg_positive,not affectionate,affectionate,unaffectionate,person,cold,Michelle,female,NA,d0f133c5ca6fb4aaba09109030e15d39
four_sliders,morphant,the most unaffectionate<br>person in the world,the most affectionate<br>person in the world,0.45,3,12334,2,neg_neg_positive,not not affectionate,affectionate,unaffectionate,person,cold,Charles,male,NA,d0f133c5ca6fb4aaba09109030e15d39
four_sliders,morphant,the most unaffectionate<br>person in the world,the most affectionate<br>person in the world,0.24,3,12334,3,neg_morphant,not unaffectionate,affectionate,unaffectionate,person,cold,Jeremy,male,NA,d0f133c5ca6fb4aaba09109030e15d39
four_sliders,morphant,the most unaffectionate<br>person in the world,the most affectionate<br>person in the world,0.37,3,12334,4,positive,affectionate,affectionate,unaffectionate,person,cold,Noah,male,NA,d0f133c5ca6fb4aaba09109030e15d39
four_sliders,morphant,the most unaffectionate<br>person in the world,the most affectionate<br>person in the world,0.47,3,12334,5,morphant,unaffectionate,affectionate,unaffectionate,person,cold,Alicia,female,NA,d0f133c5ca6fb4aaba09109030e15d39
four_sliders,morphant,the most immature<br>person in the world,the most mature<br>person in the world,0.11,4,33200,1,positive,mature,mature,immature,person,childish,Anthony,male,NA,d0f133c5ca6fb4aaba09109030e15d39
four_sliders,morphant,the most immature<br>person in the world,the most mature<br>person in the world,0.21,4,33200,2,neg_positive,not mature,mature,immature,person,childish,Nicole,female,NA,d0f133c5ca6fb4aaba09109030e15d39
four_sliders,morphant,the most immature<br>person in the world,the most mature<br>person in the world,0.28,4,33200,3,neg_morphant,not immature,mature,immature,person,childish,Mason,male,NA,d0f133c5ca6fb4aaba09109030e15d39
four_sliders,morphant,the most immature<br>person in the world,the most mature<br>person in the world,0.23,4,33200,4,morphant,immature,mature,immature,person,childish,Greg,male,NA,d0f133c5ca6fb4aaba09109030e15d39
four_sliders,morphant,the most immature<br>person in the world,the most mature<br>person in the world,0.35,4,33200,5,neg_neg_positive,not not mature,mature,immature,person,childish,Stephanie,female,NA,d0f133c5ca6fb4aaba09109030e15d39
four_sliders,morphant,the most unhappy<br>person in the world,the most happy<br>person in the world,0.35,5,12448,1,morphant,unhappy,happy,unhappy,person,sad,Alison,female,NA,d0f133c5ca6fb4aaba09109030e15d39
four_sliders,morphant,the most unhappy<br>person in the world,the most happy<br>person in the world,0.41,5,12448,2,neg_morphant,not unhappy,happy,unhappy,person,sad,Brooke,female,NA,d0f133c5ca6fb4aaba09109030e15d39
four_sliders,morphant,the most unhappy<br>person in the world,the most happy<br>person in the world,0.58,5,12448,3,positive,happy,happy,unhappy,person,sad,Jackie,female,NA,d0f133c5ca6fb4aaba09109030e15d39
four_sliders,morphant,the most unhappy<br>person in the world,the most happy<br>person in the world,0.35,5,12448,4,neg_neg_positive,not not happy,happy,unhappy,person,sad,Jacob,male,NA,d0f133c5ca6fb4aaba09109030e15d39
four_sliders,morphant,the most unhappy<br>person in the world,the most happy<br>person in the world,0.2,5,12448,5,neg_positive,not happy,happy,unhappy,person,sad,Monica,female,NA,d0f133c5ca6fb4aaba09109030e15d39
four_sliders,morphant,the most unattractive<br>person in the world,the most attractive<br>person in the world,0.27,6,13388,1,neg_positive,not attractive,attractive,unattractive,person,ugly,Dylan,male,NA,d0f133c5ca6fb4aaba09109030e15d39
four_sliders,morphant,the most unattractive<br>person in the world,the most attractive<br>person in the world,0.43,6,13388,2,neg_morphant,not unattractive,attractive,unattractive,person,ugly,Diana,female,NA,d0f133c5ca6fb4aaba09109030e15d39
four_sliders,morphant,the most unattractive<br>person in the world,the most attractive<br>person in the world,0.32,6,13388,3,neg_neg_positive,not not attractive,attractive,unattractive,person,ugly,Jennifer,female,NA,d0f133c5ca6fb4aaba09109030e15d39
four_sliders,morphant,the most unattractive<br>person in the world,the most attractive<br>person in the world,0.49,6,13388,4,morphant,unattractive,attractive,unattractive,person,ugly,Stephen,male,NA,d0f133c5ca6fb4aaba09109030e15d39
four_sliders,morphant,the most unattractive<br>person in the world,the most attractive<br>person in the world,0.44,6,13388,5,positive,attractive,attractive,unattractive,person,ugly,William,male,NA,d0f133c5ca6fb4aaba09109030e15d39
four_sliders,morphant,the most uninteresting<br>person in the world,the most interesting<br>person in the world,0.35,7,22824,1,positive,interesting,interesting,uninteresting,person,boring,Kathleen,female,NA,d0f133c5ca6fb4aaba09109030e15d39
four_sliders,morphant,the most uninteresting<br>person in the world,the most interesting<br>person in the world,0.5,7,22824,2,neg_positive,not interesting,interesting,uninteresting,person,boring,Gabriel,male,NA,d0f133c5ca6fb4aaba09109030e15d39
four_sliders,morphant,the most uninteresting<br>person in the world,the most interesting<br>person in the world,0.36,7,22824,3,neg_neg_positive,not not interesting,interesting,uninteresting,person,boring,Alexander,male,NA,d0f133c5ca6fb4aaba09109030e15d39
four_sliders,morphant,the most uninteresting<br>person in the world,the most interesting<br>person in the world,0.45,7,22824,4,morphant,uninteresting,interesting,uninteresting,person,boring,Melinda,female,NA,d0f133c5ca6fb4aaba09109030e15d39
four_sliders,morphant,the most uninteresting<br>person in the world,the most interesting<br>person in the world,0.33,7,22824,5,neg_morphant,not uninteresting,interesting,uninteresting,person,boring,John,male,NA,d0f133c5ca6fb4aaba09109030e15d39
four_sliders,morphant,the most uneducated<br>person in the world,the most educated<br>person in the world,0.31,8,8517,1,neg_neg_positive,not not educated,educated,uneducated,person,ignorant,Samuel,male,NA,d0f133c5ca6fb4aaba09109030e15d39
four_sliders,morphant,the most uneducated<br>person in the world,the most educated<br>person in the world,0.41,8,8517,2,neg_positive,not educated,educated,uneducated,person,ignorant,Sasha,female,NA,d0f133c5ca6fb4aaba09109030e15d39
four_sliders,morphant,the most uneducated<br>person in the world,the most educated<br>person in the world,0.33,8,8517,3,neg_morphant,not uneducated,educated,uneducated,person,ignorant,Maya,female,NA,d0f133c5ca6fb4aaba09109030e15d39
four_sliders,morphant,the most uneducated<br>person in the world,the most educated<br>person in the world,0.4,8,8517,4,morphant,uneducated,educated,uneducated,person,ignorant,Michael,male,NA,d0f133c5ca6fb4aaba09109030e15d39
four_sliders,morphant,the most uneducated<br>person in the world,the most educated<br>person in the world,0.23,8,8517,5,positive,educated,educated,uneducated,person,ignorant,Julia,female,NA,d0f133c5ca6fb4aaba09109030e15d39
four_sliders,morphant,the most unpatriotic<br>person in the world,the most patriotic<br>person in the world,0.23,1,56529,1,neg_neg_positive,not not patriotic,patriotic,unpatriotic,person,traitorous,Veronica,female,NA,ce666cbe476651fafc4bc0503ad627aa
four_sliders,morphant,the most unpatriotic<br>person in the world,the most patriotic<br>person in the world,0.89,1,56529,2,positive,patriotic,patriotic,unpatriotic,person,traitorous,Angela,female,NA,ce666cbe476651fafc4bc0503ad627aa
four_sliders,morphant,the most unpatriotic<br>person in the world,the most patriotic<br>person in the world,0.23,1,56529,3,neg_morphant,not unpatriotic,patriotic,unpatriotic,person,traitorous,Alison,female,NA,ce666cbe476651fafc4bc0503ad627aa
four_sliders,morphant,the most unpatriotic<br>person in the world,the most patriotic<br>person in the world,0.23,1,56529,4,morphant,unpatriotic,patriotic,unpatriotic,person,traitorous,Anthony,male,NA,ce666cbe476651fafc4bc0503ad627aa
four_sliders,morphant,the most unpatriotic<br>person in the world,the most patriotic<br>person in the world,0.23,1,56529,5,neg_positive,not patriotic,patriotic,unpatriotic,person,traitorous,Greg,male,NA,ce666cbe476651fafc4bc0503ad627aa
four_sliders,morphant,the most irrational<br>person in the world,the most rational<br>person in the world,0.01,2,20243,1,neg_positive,not rational,rational,irrational,person,crazy,David,male,NA,ce666cbe476651fafc4bc0503ad627aa
four_sliders,morphant,the most irrational<br>person in the world,the most rational<br>person in the world,0,2,20243,2,neg_neg_positive,not not rational,rational,irrational,person,crazy,Diana,female,NA,ce666cbe476651fafc4bc0503ad627aa
four_sliders,morphant,the most irrational<br>person in the world,the most rational<br>person in the world,1,2,20243,3,positive,rational,rational,irrational,person,crazy,Monica,female,NA,ce666cbe476651fafc4bc0503ad627aa
four_sliders,morphant,the most irrational<br>person in the world,the most rational<br>person in the world,0,2,20243,4,morphant,irrational,rational,irrational,person,crazy,Alicia,female,NA,ce666cbe476651fafc4bc0503ad627aa
four_sliders,morphant,the most irrational<br>person in the world,the most rational<br>person in the world,1,2,20243,5,neg_morphant,not irrational,rational,irrational,person,crazy,Daniel,male,NA,ce666cbe476651fafc4bc0503ad627aa
four_sliders,morphant,the most uneducated<br>person in the world,the most educated<br>person in the world,0,3,30343,1,morphant,uneducated,educated,uneducated,person,ignorant,Lee,male,NA,ce666cbe476651fafc4bc0503ad627aa
four_sliders,morphant,the most uneducated<br>person in the world,the most educated<br>person in the world,0.85,3,30343,2,neg_neg_positive,not not educated,educated,uneducated,person,ignorant,Jackie,female,NA,ce666cbe476651fafc4bc0503ad627aa
four_sliders,morphant,the most uneducated<br>person in the world,the most educated<br>person in the world,0.83,3,30343,3,neg_morphant,not uneducated,educated,uneducated,person,ignorant,Sasha,female,NA,ce666cbe476651fafc4bc0503ad627aa
four_sliders,morphant,the most uneducated<br>person in the world,the most educated<br>person in the world,0.13,3,30343,4,neg_positive,not educated,educated,uneducated,person,ignorant,Brooke,female,NA,ce666cbe476651fafc4bc0503ad627aa
four_sliders,morphant,the most uneducated<br>person in the world,the most educated<br>person in the world,1,3,30343,5,positive,educated,educated,uneducated,person,ignorant,Nicole,female,NA,ce666cbe476651fafc4bc0503ad627aa
four_sliders,morphant,the most unforgiving<br>person in the world,the most forgiving<br>person in the world,0.91,4,56578,1,neg_morphant,not unforgiving,forgiving,unforgiving,person,resentful,Jacob,male,NA,ce666cbe476651fafc4bc0503ad627aa
four_sliders,morphant,the most unforgiving<br>person in the world,the most forgiving<br>person in the world,0.88,4,56578,2,positive,forgiving,forgiving,unforgiving,person,resentful,Amber,female,NA,ce666cbe476651fafc4bc0503ad627aa
four_sliders,morphant,the most unforgiving<br>person in the world,the most forgiving<br>person in the world,0.15,4,56578,3,neg_positive,not forgiving,forgiving,unforgiving,person,resentful,Jennifer,female,NA,ce666cbe476651fafc4bc0503ad627aa
four_sliders,morphant,the most unforgiving<br>person in the world,the most forgiving<br>person in the world,0.12,4,56578,4,morphant,unforgiving,forgiving,unforgiving,person,resentful,Alexander,male,NA,ce666cbe476651fafc4bc0503ad627aa
four_sliders,morphant,the most unforgiving<br>person in the world,the most forgiving<br>person in the world,0.71,4,56578,5,neg_neg_positive,not not forgiving,forgiving,unforgiving,person,resentful,Samuel,male,NA,ce666cbe476651fafc4bc0503ad627aa
four_sliders,morphant,the most unattractive<br>person in the world,the most attractive<br>person in the world,0.79,5,32674,1,neg_neg_positive,not not attractive,attractive,unattractive,person,ugly,Melinda,female,NA,ce666cbe476651fafc4bc0503ad627aa
four_sliders,morphant,the most unattractive<br>person in the world,the most attractive<br>person in the world,0.06,5,32674,2,neg_positive,not attractive,attractive,unattractive,person,ugly,Mia,female,NA,ce666cbe476651fafc4bc0503ad627aa
four_sliders,morphant,the most unattractive<br>person in the world,the most attractive<br>person in the world,0.03,5,32674,3,morphant,unattractive,attractive,unattractive,person,ugly,John,male,NA,ce666cbe476651fafc4bc0503ad627aa
four_sliders,morphant,the most unattractive<br>person in the world,the most attractive<br>person in the world,0.98,5,32674,4,neg_morphant,not unattractive,attractive,unattractive,person,ugly,Julia,female,NA,ce666cbe476651fafc4bc0503ad627aa
four_sliders,morphant,the most unattractive<br>person in the world,the most attractive<br>person in the world,0.98,5,32674,5,positive,attractive,attractive,unattractive,person,ugly,Michael,male,NA,ce666cbe476651fafc4bc0503ad627aa
four_sliders,morphant,the most immature<br>person in the world,the most mature<br>person in the world,1,6,29806,1,neg_morphant,not immature,mature,immature,person,childish,Liam,male,NA,ce666cbe476651fafc4bc0503ad627aa
four_sliders,morphant,the most immature<br>person in the world,the most mature<br>person in the world,0.87,6,29806,2,neg_neg_positive,not not mature,mature,immature,person,childish,Dylan,male,NA,ce666cbe476651fafc4bc0503ad627aa
four_sliders,morphant,the most immature<br>person in the world,the most mature<br>person in the world,0.95,6,29806,3,positive,mature,mature,immature,person,childish,Charles,male,NA,ce666cbe476651fafc4bc0503ad627aa
four_sliders,morphant,the most immature<br>person in the world,the most mature<br>person in the world,0.03,6,29806,4,neg_positive,not mature,mature,immature,person,childish,Kathleen,female,NA,ce666cbe476651fafc4bc0503ad627aa
four_sliders,morphant,the most immature<br>person in the world,the most mature<br>person in the world,0,6,29806,5,morphant,immature,mature,immature,person,childish,Sophia,female,NA,ce666cbe476651fafc4bc0503ad627aa
four_sliders,morphant,the most ungenerous<br>person in the world,the most generous<br>person in the world,0.89,7,24239,1,neg_neg_positive,not not generous,generous,ungenerous,person,stingy,Laura,female,NA,ce666cbe476651fafc4bc0503ad627aa
four_sliders,morphant,the most ungenerous<br>person in the world,the most generous<br>person in the world,0.07,7,24239,2,morphant,ungenerous,generous,ungenerous,person,stingy,Emma,female,NA,ce666cbe476651fafc4bc0503ad627aa
four_sliders,morphant,the most ungenerous<br>person in the world,the most generous<br>person in the world,0.91,7,24239,3,neg_morphant,not ungenerous,generous,ungenerous,person,stingy,Kim,female,NA,ce666cbe476651fafc4bc0503ad627aa
four_sliders,morphant,the most ungenerous<br>person in the world,the most generous<br>person in the world,0.12,7,24239,4,neg_positive,not generous,generous,ungenerous,person,stingy,William,male,NA,ce666cbe476651fafc4bc0503ad627aa
four_sliders,morphant,the most ungenerous<br>person in the world,the most generous<br>person in the world,0.97,7,24239,5,positive,generous,generous,ungenerous,person,stingy,Mason,male,NA,ce666cbe476651fafc4bc0503ad627aa
