trial_type,antonym_type,endpoint_low,endpoint_high,response,trial_num,rt,slider_position,adjective_type,adjective,positive,morphant,referent,lexant,name,gender,exptid,workerid
four_sliders,morphant,the most insincere<br>person in the world,the most sincere<br>person in the world,0.26,1,55727,1,morphant,insincere,sincere,insincere,person,fake,Liam,male,1,6e405bdae63736f14976fd81ce33dad0
four_sliders,morphant,the most insincere<br>person in the world,the most sincere<br>person in the world,0.78,1,55727,2,positive,sincere,sincere,insincere,person,fake,Andrew,male,1,6e405bdae63736f14976fd81ce33dad0
four_sliders,morphant,the most insincere<br>person in the world,the most sincere<br>person in the world,0.73,1,55727,3,neg_neg_positive,not not sincere,sincere,insincere,person,fake,Jeremy,male,1,6e405bdae63736f14976fd81ce33dad0
four_sliders,morphant,the most insincere<br>person in the world,the most sincere<br>person in the world,0.26,1,55727,4,neg_positive,not sincere,sincere,insincere,person,fake,Anthony,male,1,6e405bdae63736f14976fd81ce33dad0
four_sliders,morphant,the most unhappy<br>person in the world,the most happy<br>person in the world,0.24,2,22378,1,morphant,unhappy,happy,unhappy,person,sad,Jackie,female,1,6e405bdae63736f14976fd81ce33dad0
four_sliders,morphant,the most unhappy<br>person in the world,the most happy<br>person in the world,0.24,2,22378,2,neg_positive,not happy,happy,unhappy,person,sad,Angela,female,1,6e405bdae63736f14976fd81ce33dad0
four_sliders,morphant,the most unhappy<br>person in the world,the most happy<br>person in the world,0.78,2,22378,3,positive,happy,happy,unhappy,person,sad,Eric,male,1,6e405bdae63736f14976fd81ce33dad0
four_sliders,morphant,the most unhappy<br>person in the world,the most happy<br>person in the world,0.75,2,22378,4,neg_neg_positive,not not happy,happy,unhappy,person,sad,Nicole,female,1,6e405bdae63736f14976fd81ce33dad0
four_sliders,morphant,the most unreliable<br>person in the world,the most reliable<br>person in the world,0.66,3,21521,1,neg_neg_positive,not not reliable,reliable,unreliable,person,flaky,Mia,female,1,6e405bdae63736f14976fd81ce33dad0
four_sliders,morphant,the most unreliable<br>person in the world,the most reliable<br>person in the world,0.76,3,21521,2,positive,reliable,reliable,unreliable,person,flaky,Stephen,male,1,6e405bdae63736f14976fd81ce33dad0
four_sliders,morphant,the most unreliable<br>person in the world,the most reliable<br>person in the world,0.21,3,21521,3,neg_positive,not reliable,reliable,unreliable,person,flaky,Diana,female,1,6e405bdae63736f14976fd81ce33dad0
four_sliders,morphant,the most unreliable<br>person in the world,the most reliable<br>person in the world,0.21,3,21521,4,morphant,unreliable,reliable,unreliable,person,flaky,Michelle,female,1,6e405bdae63736f14976fd81ce33dad0
four_sliders,morphant,the most unresourceful<br>person in the world,the most resourceful<br>person in the world,0.67,4,22828,1,neg_neg_positive,not not resourceful,resourceful,unresourceful,person,wasteful,Alexander,male,1,6e405bdae63736f14976fd81ce33dad0
four_sliders,morphant,the most unresourceful<br>person in the world,the most resourceful<br>person in the world,0.76,4,22828,2,positive,resourceful,resourceful,unresourceful,person,wasteful,Amber,female,1,6e405bdae63736f14976fd81ce33dad0
four_sliders,morphant,the most unresourceful<br>person in the world,the most resourceful<br>person in the world,0.27,4,22828,3,neg_positive,not resourceful,resourceful,unresourceful,person,wasteful,John,male,1,6e405bdae63736f14976fd81ce33dad0
four_sliders,morphant,the most unresourceful<br>person in the world,the most resourceful<br>person in the world,0.27,4,22828,4,morphant,unresourceful,resourceful,unresourceful,person,wasteful,Laura,female,1,6e405bdae63736f14976fd81ce33dad0
four_sliders,morphant,the most ungenerous<br>person in the world,the most generous<br>person in the world,0.73,5,20891,1,positive,generous,generous,ungenerous,person,stingy,Noah,male,1,6e405bdae63736f14976fd81ce33dad0
four_sliders,morphant,the most ungenerous<br>person in the world,the most generous<br>person in the world,0.24,5,20891,2,morphant,ungenerous,generous,ungenerous,person,stingy,Cameron,male,1,6e405bdae63736f14976fd81ce33dad0
four_sliders,morphant,the most ungenerous<br>person in the world,the most generous<br>person in the world,0.67,5,20891,3,neg_neg_positive,not not generous,generous,ungenerous,person,stingy,Stephanie,female,1,6e405bdae63736f14976fd81ce33dad0
four_sliders,morphant,the most ungenerous<br>person in the world,the most generous<br>person in the world,0.24,5,20891,4,neg_positive,not generous,generous,ungenerous,person,stingy,Daniel,male,1,6e405bdae63736f14976fd81ce33dad0
four_sliders,morphant,the most impolite<br>person in the world,the most polite<br>person in the world,0.22,6,23958,1,morphant,impolite,polite,impolite,person,rude,Mason,male,1,6e405bdae63736f14976fd81ce33dad0
four_sliders,morphant,the most impolite<br>person in the world,the most polite<br>person in the world,0.69,6,23958,2,neg_neg_positive,not not polite,polite,impolite,person,rude,Sophia,female,1,6e405bdae63736f14976fd81ce33dad0
four_sliders,morphant,the most impolite<br>person in the world,the most polite<br>person in the world,0.78,6,23958,3,positive,polite,polite,impolite,person,rude,Sasha,female,1,6e405bdae63736f14976fd81ce33dad0
four_sliders,morphant,the most impolite<br>person in the world,the most polite<br>person in the world,0.23,6,23958,4,neg_positive,not polite,polite,impolite,person,rude,Kathleen,female,1,6e405bdae63736f14976fd81ce33dad0
four_sliders,morphant,the most uneducated<br>person in the world,the most educated<br>person in the world,0.77,7,16864,1,positive,educated,educated,uneducated,person,ignorant,Emma,female,1,6e405bdae63736f14976fd81ce33dad0
four_sliders,morphant,the most uneducated<br>person in the world,the most educated<br>person in the world,0.24,7,16864,2,neg_positive,not educated,educated,uneducated,person,ignorant,Veronica,female,1,6e405bdae63736f14976fd81ce33dad0
four_sliders,morphant,the most uneducated<br>person in the world,the most educated<br>person in the world,0.23,7,16864,3,morphant,uneducated,educated,uneducated,person,ignorant,Michael,male,1,6e405bdae63736f14976fd81ce33dad0
four_sliders,morphant,the most uneducated<br>person in the world,the most educated<br>person in the world,0.7,7,16864,4,neg_neg_positive,not not educated,educated,uneducated,person,ignorant,Jacob,male,1,6e405bdae63736f14976fd81ce33dad0
four_sliders,morphant,the most unfriendly<br>person in the world,the most friendly<br>person in the world,0.75,8,11496,1,positive,friendly,friendly,unfriendly,person,mean,Dylan,male,1,6e405bdae63736f14976fd81ce33dad0
four_sliders,morphant,the most unfriendly<br>person in the world,the most friendly<br>person in the world,0.67,8,11496,2,neg_neg_positive,not not friendly,friendly,unfriendly,person,mean,Greg,male,1,6e405bdae63736f14976fd81ce33dad0
four_sliders,morphant,the most unfriendly<br>person in the world,the most friendly<br>person in the world,0.23,8,11496,3,neg_positive,not friendly,friendly,unfriendly,person,mean,Jennifer,female,1,6e405bdae63736f14976fd81ce33dad0
four_sliders,morphant,the most unfriendly<br>person in the world,the most friendly<br>person in the world,0.23,8,11496,4,morphant,unfriendly,friendly,unfriendly,person,mean,Gabriel,male,1,6e405bdae63736f14976fd81ce33dad0
four_sliders,morphant,the most dishonest<br>person in the world,the most honest<br>person in the world,0.75,9,20502,1,positive,honest,honest,dishonest,person,deceitful,Alison,female,1,6e405bdae63736f14976fd81ce33dad0
four_sliders,morphant,the most dishonest<br>person in the world,the most honest<br>person in the world,0.64,9,20502,2,neg_neg_positive,not not honest,honest,dishonest,person,deceitful,Monica,female,1,6e405bdae63736f14976fd81ce33dad0
four_sliders,morphant,the most dishonest<br>person in the world,the most honest<br>person in the world,0.15,9,20502,3,morphant,dishonest,honest,dishonest,person,deceitful,William,male,1,6e405bdae63736f14976fd81ce33dad0
four_sliders,morphant,the most dishonest<br>person in the world,the most honest<br>person in the world,0.16,9,20502,4,neg_positive,not honest,honest,dishonest,person,deceitful,Claire,female,1,6e405bdae63736f14976fd81ce33dad0
four_sliders,morphant,the most irrational<br>person in the world,the most rational<br>person in the world,0.17,10,30681,1,morphant,irrational,rational,irrational,person,crazy,Kim,female,1,6e405bdae63736f14976fd81ce33dad0
four_sliders,morphant,the most irrational<br>person in the world,the most rational<br>person in the world,0.66,10,30681,2,neg_neg_positive,not not rational,rational,irrational,person,crazy,Samuel,male,1,6e405bdae63736f14976fd81ce33dad0
four_sliders,morphant,the most irrational<br>person in the world,the most rational<br>person in the world,0.22,10,30681,3,neg_positive,not rational,rational,irrational,person,crazy,Alicia,female,1,6e405bdae63736f14976fd81ce33dad0
four_sliders,morphant,the most irrational<br>person in the world,the most rational<br>person in the world,0.77,10,30681,4,positive,rational,rational,irrational,person,crazy,Maya,female,1,6e405bdae63736f14976fd81ce33dad0
four_sliders,morphant,the most unaffectionate<br>person in the world,the most affectionate<br>person in the world,0.8,11,11339,1,positive,affectionate,affectionate,unaffectionate,person,cold,Julia,female,1,6e405bdae63736f14976fd81ce33dad0
four_sliders,morphant,the most unaffectionate<br>person in the world,the most affectionate<br>person in the world,0.23,11,11339,2,morphant,unaffectionate,affectionate,unaffectionate,person,cold,Melinda,female,1,6e405bdae63736f14976fd81ce33dad0
four_sliders,morphant,the most unaffectionate<br>person in the world,the most affectionate<br>person in the world,0.23,11,11339,3,neg_positive,not affectionate,affectionate,unaffectionate,person,cold,Lucas,male,1,6e405bdae63736f14976fd81ce33dad0
four_sliders,morphant,the most unaffectionate<br>person in the world,the most affectionate<br>person in the world,0.72,11,11339,4,neg_neg_positive,not not affectionate,affectionate,unaffectionate,person,cold,David,male,1,6e405bdae63736f14976fd81ce33dad0
four_sliders,morphant,the most unpatriotic<br>person in the world,the most patriotic<br>person in the world,0.18,12,23494,1,neg_positive,not patriotic,patriotic,unpatriotic,person,traitorous,Brooke,female,1,6e405bdae63736f14976fd81ce33dad0
four_sliders,morphant,the most unpatriotic<br>person in the world,the most patriotic<br>person in the world,0.7,12,23494,2,neg_neg_positive,not not patriotic,patriotic,unpatriotic,person,traitorous,Lee,male,1,6e405bdae63736f14976fd81ce33dad0
four_sliders,morphant,the most unpatriotic<br>person in the world,the most patriotic<br>person in the world,0.17,12,23494,3,morphant,unpatriotic,patriotic,unpatriotic,person,traitorous,Tom,male,1,6e405bdae63736f14976fd81ce33dad0
four_sliders,morphant,the most unpatriotic<br>person in the world,the most patriotic<br>person in the world,0.78,12,23494,4,positive,patriotic,patriotic,unpatriotic,person,traitorous,Charles,male,1,6e405bdae63736f14976fd81ce33dad0
four_sliders,morphant,the most unfriendly<br>person in the world,the most friendly<br>person in the world,0.5,1,16891,1,neg_neg_positive,not not friendly,friendly,unfriendly,person,mean,Sasha,female,1,54f34f4b9fe0451715c567ac2e5d9481
four_sliders,morphant,the most unfriendly<br>person in the world,the most friendly<br>person in the world,0.86,1,16891,2,positive,friendly,friendly,unfriendly,person,mean,Liam,male,1,54f34f4b9fe0451715c567ac2e5d9481
four_sliders,morphant,the most unfriendly<br>person in the world,the most friendly<br>person in the world,0.08,1,16891,3,morphant,unfriendly,friendly,unfriendly,person,mean,Andrew,male,1,54f34f4b9fe0451715c567ac2e5d9481
four_sliders,morphant,the most unfriendly<br>person in the world,the most friendly<br>person in the world,0.13,1,16891,4,neg_positive,not friendly,friendly,unfriendly,person,mean,William,male,1,54f34f4b9fe0451715c567ac2e5d9481
four_sliders,morphant,the most uninteresting<br>person in the world,the most interesting<br>person in the world,0.18,2,9154,1,neg_positive,not interesting,interesting,uninteresting,person,boring,Sophia,female,1,54f34f4b9fe0451715c567ac2e5d9481
four_sliders,morphant,the most uninteresting<br>person in the world,the most interesting<br>person in the world,0.82,2,9154,2,positive,interesting,interesting,uninteresting,person,boring,Jeremy,male,1,54f34f4b9fe0451715c567ac2e5d9481
four_sliders,morphant,the most uninteresting<br>person in the world,the most interesting<br>person in the world,0.13,2,9154,3,morphant,uninteresting,interesting,uninteresting,person,boring,Maya,female,1,54f34f4b9fe0451715c567ac2e5d9481
four_sliders,morphant,the most uninteresting<br>person in the world,the most interesting<br>person in the world,0.52,2,9154,4,neg_neg_positive,not not interesting,interesting,uninteresting,person,boring,Brooke,female,1,54f34f4b9fe0451715c567ac2e5d9481
four_sliders,morphant,the most unambitious<br>person in the world,the most ambitious<br>person in the world,0.48,3,5779,1,neg_neg_positive,not not ambitious,ambitious,unambitious,person,lazy,Anthony,male,1,54f34f4b9fe0451715c567ac2e5d9481
four_sliders,morphant,the most unambitious<br>person in the world,the most ambitious<br>person in the world,0.18,3,5779,2,morphant,unambitious,ambitious,unambitious,person,lazy,Greg,male,1,54f34f4b9fe0451715c567ac2e5d9481
four_sliders,morphant,the most unambitious<br>person in the world,the most ambitious<br>person in the world,0.13,3,5779,3,neg_positive,not ambitious,ambitious,unambitious,person,lazy,Michael,male,1,54f34f4b9fe0451715c567ac2e5d9481
four_sliders,morphant,the most unambitious<br>person in the world,the most ambitious<br>person in the world,0.83,3,5779,4,positive,ambitious,ambitious,unambitious,person,lazy,Cameron,male,1,54f34f4b9fe0451715c567ac2e5d9481
four_sliders,morphant,the most unkind<br>person in the world,the most kind<br>person in the world,0.54,4,8510,1,neg_neg_positive,not not kind,kind,unkind,person,cruel,Michelle,female,1,54f34f4b9fe0451715c567ac2e5d9481
four_sliders,morphant,the most unkind<br>person in the world,the most kind<br>person in the world,0.15,4,8510,2,morphant,unkind,kind,unkind,person,cruel,Stephanie,female,1,54f34f4b9fe0451715c567ac2e5d9481
four_sliders,morphant,the most unkind<br>person in the world,the most kind<br>person in the world,0.85,4,8510,3,positive,kind,kind,unkind,person,cruel,Daniel,male,1,54f34f4b9fe0451715c567ac2e5d9481
four_sliders,morphant,the most unkind<br>person in the world,the most kind<br>person in the world,0.14,4,8510,4,neg_positive,not kind,kind,unkind,person,cruel,Alicia,female,1,54f34f4b9fe0451715c567ac2e5d9481
four_sliders,morphant,the most unpatriotic<br>person in the world,the most patriotic<br>person in the world,0.85,5,6470,1,positive,patriotic,patriotic,unpatriotic,person,traitorous,Emma,female,1,54f34f4b9fe0451715c567ac2e5d9481
four_sliders,morphant,the most unpatriotic<br>person in the world,the most patriotic<br>person in the world,0.15,5,6470,2,neg_positive,not patriotic,patriotic,unpatriotic,person,traitorous,Samuel,male,1,54f34f4b9fe0451715c567ac2e5d9481
four_sliders,morphant,the most unpatriotic<br>person in the world,the most patriotic<br>person in the world,0.55,5,6470,3,neg_neg_positive,not not patriotic,patriotic,unpatriotic,person,traitorous,John,male,1,54f34f4b9fe0451715c567ac2e5d9481
four_sliders,morphant,the most unpatriotic<br>person in the world,the most patriotic<br>person in the world,0.11,5,6470,4,morphant,unpatriotic,patriotic,unpatriotic,person,traitorous,Jacob,male,1,54f34f4b9fe0451715c567ac2e5d9481
four_sliders,morphant,the most dishonest<br>person in the world,the most honest<br>person in the world,0.16,6,6884,1,neg_positive,not honest,honest,dishonest,person,deceitful,Kathleen,female,1,54f34f4b9fe0451715c567ac2e5d9481
four_sliders,morphant,the most dishonest<br>person in the world,the most honest<br>person in the world,0.56,6,6884,2,neg_neg_positive,not not honest,honest,dishonest,person,deceitful,Alison,female,1,54f34f4b9fe0451715c567ac2e5d9481
four_sliders,morphant,the most dishonest<br>person in the world,the most honest<br>person in the world,0.1,6,6884,3,morphant,dishonest,honest,dishonest,person,deceitful,Kim,female,1,54f34f4b9fe0451715c567ac2e5d9481
four_sliders,morphant,the most dishonest<br>person in the world,the most honest<br>person in the world,0.81,6,6884,4,positive,honest,honest,dishonest,person,deceitful,Alexander,male,1,54f34f4b9fe0451715c567ac2e5d9481
four_sliders,morphant,the most immature<br>person in the world,the most mature<br>person in the world,0.55,7,5802,1,neg_neg_positive,not not mature,mature,immature,person,childish,Jennifer,female,1,54f34f4b9fe0451715c567ac2e5d9481
four_sliders,morphant,the most immature<br>person in the world,the most mature<br>person in the world,0.12,7,5802,2,morphant,immature,mature,immature,person,childish,Angela,female,1,54f34f4b9fe0451715c567ac2e5d9481
four_sliders,morphant,the most immature<br>person in the world,the most mature<br>person in the world,0.86,7,5802,3,positive,mature,mature,immature,person,childish,Noah,male,1,54f34f4b9fe0451715c567ac2e5d9481
four_sliders,morphant,the most immature<br>person in the world,the most mature<br>person in the world,0.19,7,5802,4,neg_positive,not mature,mature,immature,person,childish,Laura,female,1,54f34f4b9fe0451715c567ac2e5d9481
four_sliders,morphant,the most insincere<br>person in the world,the most sincere<br>person in the world,0.14,8,6457,1,neg_positive,not sincere,sincere,insincere,person,fake,Nicole,female,1,54f34f4b9fe0451715c567ac2e5d9481
four_sliders,morphant,the most insincere<br>person in the world,the most sincere<br>person in the world,0.83,8,6457,2,positive,sincere,sincere,insincere,person,fake,Mason,male,1,54f34f4b9fe0451715c567ac2e5d9481
four_sliders,morphant,the most insincere<br>person in the world,the most sincere<br>person in the world,0.09,8,6457,3,morphant,insincere,sincere,insincere,person,fake,Mia,female,1,54f34f4b9fe0451715c567ac2e5d9481
four_sliders,morphant,the most insincere<br>person in the world,the most sincere<br>person in the world,0.58,8,6457,4,neg_neg_positive,not not sincere,sincere,insincere,person,fake,Dylan,male,1,54f34f4b9fe0451715c567ac2e5d9481
four_sliders,morphant,the most intolerant<br>person in the world,the most tolerant<br>person in the world,0.58,9,6471,1,neg_neg_positive,not not tolerant,tolerant,intolerant,person,bigoted,Melinda,female,1,54f34f4b9fe0451715c567ac2e5d9481
four_sliders,morphant,the most intolerant<br>person in the world,the most tolerant<br>person in the world,0.13,9,6471,2,neg_positive,not tolerant,tolerant,intolerant,person,bigoted,Diana,female,1,54f34f4b9fe0451715c567ac2e5d9481
four_sliders,morphant,the most intolerant<br>person in the world,the most tolerant<br>person in the world,0.09,9,6471,3,morphant,intolerant,tolerant,intolerant,person,bigoted,Veronica,female,1,54f34f4b9fe0451715c567ac2e5d9481
four_sliders,morphant,the most intolerant<br>person in the world,the most tolerant<br>person in the world,0.82,9,6471,4,positive,tolerant,tolerant,intolerant,person,bigoted,Julia,female,1,54f34f4b9fe0451715c567ac2e5d9481
four_sliders,morphant,the most unattractive<br>person in the world,the most attractive<br>person in the world,0.08,10,5721,1,morphant,unattractive,attractive,unattractive,person,ugly,Lee,male,1,54f34f4b9fe0451715c567ac2e5d9481
four_sliders,morphant,the most unattractive<br>person in the world,the most attractive<br>person in the world,0.57,10,5721,2,neg_neg_positive,not not attractive,attractive,unattractive,person,ugly,Claire,female,1,54f34f4b9fe0451715c567ac2e5d9481
four_sliders,morphant,the most unattractive<br>person in the world,the most attractive<br>person in the world,0.18,10,5721,3,neg_positive,not attractive,attractive,unattractive,person,ugly,Eric,male,1,54f34f4b9fe0451715c567ac2e5d9481
four_sliders,morphant,the most unattractive<br>person in the world,the most attractive<br>person in the world,0.84,10,5721,4,positive,attractive,attractive,unattractive,person,ugly,Tom,male,1,54f34f4b9fe0451715c567ac2e5d9481
four_sliders,morphant,the most unaffectionate<br>person in the world,the most affectionate<br>person in the world,0.86,11,4883,1,positive,affectionate,affectionate,unaffectionate,person,cold,Charles,male,1,54f34f4b9fe0451715c567ac2e5d9481
four_sliders,morphant,the most unaffectionate<br>person in the world,the most affectionate<br>person in the world,0.55,11,4883,2,neg_neg_positive,not not affectionate,affectionate,unaffectionate,person,cold,David,male,1,54f34f4b9fe0451715c567ac2e5d9481
four_sliders,morphant,the most unaffectionate<br>person in the world,the most affectionate<br>person in the world,0.12,11,4883,3,neg_positive,not affectionate,affectionate,unaffectionate,person,cold,Monica,female,1,54f34f4b9fe0451715c567ac2e5d9481
four_sliders,morphant,the most unaffectionate<br>person in the world,the most affectionate<br>person in the world,0.08,11,4883,4,morphant,unaffectionate,affectionate,unaffectionate,person,cold,Amber,female,1,54f34f4b9fe0451715c567ac2e5d9481
four_sliders,morphant,the most impolite<br>person in the world,the most polite<br>person in the world,0.83,12,5208,1,positive,polite,polite,impolite,person,rude,Stephen,male,1,54f34f4b9fe0451715c567ac2e5d9481
four_sliders,morphant,the most impolite<br>person in the world,the most polite<br>person in the world,0.13,12,5208,2,neg_positive,not polite,polite,impolite,person,rude,Jackie,female,1,54f34f4b9fe0451715c567ac2e5d9481
four_sliders,morphant,the most impolite<br>person in the world,the most polite<br>person in the world,0.08,12,5208,3,morphant,impolite,polite,impolite,person,rude,Gabriel,male,1,54f34f4b9fe0451715c567ac2e5d9481
four_sliders,morphant,the most impolite<br>person in the world,the most polite<br>person in the world,0.58,12,5208,4,neg_neg_positive,not not polite,polite,impolite,person,rude,Lucas,male,1,54f34f4b9fe0451715c567ac2e5d9481
four_sliders,morphant,the most immature<br>person in the world,the most mature<br>person in the world,0.2,1,17332,1,neg_positive,not mature,mature,immature,person,childish,Sasha,female,1,cdb24dcf9ff9bd218cae3299883fd8a6
four_sliders,morphant,the most immature<br>person in the world,the most mature<br>person in the world,0.8,1,17332,2,positive,mature,mature,immature,person,childish,Sophia,female,1,cdb24dcf9ff9bd218cae3299883fd8a6
four_sliders,morphant,the most immature<br>person in the world,the most mature<br>person in the world,0,1,17332,3,morphant,immature,mature,immature,person,childish,Emma,female,1,cdb24dcf9ff9bd218cae3299883fd8a6
four_sliders,morphant,the most immature<br>person in the world,the most mature<br>person in the world,0.51,1,17332,4,neg_neg_positive,not not mature,mature,immature,person,childish,William,male,1,cdb24dcf9ff9bd218cae3299883fd8a6
four_sliders,morphant,the most unhappy<br>person in the world,the most happy<br>person in the world,0.79,2,12204,1,positive,happy,happy,unhappy,person,sad,Stephen,male,1,cdb24dcf9ff9bd218cae3299883fd8a6
four_sliders,morphant,the most unhappy<br>person in the world,the most happy<br>person in the world,0.24,2,12204,2,neg_positive,not happy,happy,unhappy,person,sad,Lucas,male,1,cdb24dcf9ff9bd218cae3299883fd8a6
four_sliders,morphant,the most unhappy<br>person in the world,the most happy<br>person in the world,0.51,2,12204,3,neg_neg_positive,not not happy,happy,unhappy,person,sad,Eric,male,1,cdb24dcf9ff9bd218cae3299883fd8a6
four_sliders,morphant,the most unhappy<br>person in the world,the most happy<br>person in the world,0,2,12204,4,morphant,unhappy,happy,unhappy,person,sad,Mason,male,1,cdb24dcf9ff9bd218cae3299883fd8a6
four_sliders,morphant,the most unforgiving<br>person in the world,the most forgiving<br>person in the world,0.8,3,10620,1,positive,forgiving,forgiving,unforgiving,person,resentful,Alexander,male,1,cdb24dcf9ff9bd218cae3299883fd8a6
four_sliders,morphant,the most unforgiving<br>person in the world,the most forgiving<br>person in the world,0.5,3,10620,2,neg_neg_positive,not not forgiving,forgiving,unforgiving,person,resentful,Daniel,male,1,cdb24dcf9ff9bd218cae3299883fd8a6
four_sliders,morphant,the most unforgiving<br>person in the world,the most forgiving<br>person in the world,0.2,3,10620,3,neg_positive,not forgiving,forgiving,unforgiving,person,resentful,Kathleen,female,1,cdb24dcf9ff9bd218cae3299883fd8a6
four_sliders,morphant,the most unforgiving<br>person in the world,the most forgiving<br>person in the world,0.02,3,10620,4,morphant,unforgiving,forgiving,unforgiving,person,resentful,Liam,male,1,cdb24dcf9ff9bd218cae3299883fd8a6
four_sliders,morphant,the most uneducated<br>person in the world,the most educated<br>person in the world,0.52,4,8343,1,neg_neg_positive,not not educated,educated,uneducated,person,ignorant,Diana,female,1,cdb24dcf9ff9bd218cae3299883fd8a6
four_sliders,morphant,the most uneducated<br>person in the world,the most educated<br>person in the world,0.23,4,8343,2,neg_positive,not educated,educated,uneducated,person,ignorant,Alicia,female,1,cdb24dcf9ff9bd218cae3299883fd8a6
four_sliders,morphant,the most uneducated<br>person in the world,the most educated<br>person in the world,0.01,4,8343,3,morphant,uneducated,educated,uneducated,person,ignorant,Maya,female,1,cdb24dcf9ff9bd218cae3299883fd8a6
four_sliders,morphant,the most uneducated<br>person in the world,the most educated<br>person in the world,0.8,4,8343,4,positive,educated,educated,uneducated,person,ignorant,Michael,male,1,cdb24dcf9ff9bd218cae3299883fd8a6
four_sliders,morphant,the most unaffectionate<br>person in the world,the most affectionate<br>person in the world,0.02,5,7460,1,morphant,unaffectionate,affectionate,unaffectionate,person,cold,David,male,1,cdb24dcf9ff9bd218cae3299883fd8a6
four_sliders,morphant,the most unaffectionate<br>person in the world,the most affectionate<br>person in the world,0.83,5,7460,2,positive,affectionate,affectionate,unaffectionate,person,cold,Jacob,male,1,cdb24dcf9ff9bd218cae3299883fd8a6
four_sliders,morphant,the most unaffectionate<br>person in the world,the most affectionate<br>person in the world,0.5,5,7460,3,neg_neg_positive,not not affectionate,affectionate,unaffectionate,person,cold,Amber,female,1,cdb24dcf9ff9bd218cae3299883fd8a6
four_sliders,morphant,the most unaffectionate<br>person in the world,the most affectionate<br>person in the world,0.23,5,7460,4,neg_positive,not affectionate,affectionate,unaffectionate,person,cold,Kim,female,1,cdb24dcf9ff9bd218cae3299883fd8a6
four_sliders,morphant,the most impolite<br>person in the world,the most polite<br>person in the world,0.51,6,6849,1,neg_neg_positive,not not polite,polite,impolite,person,rude,Noah,male,1,cdb24dcf9ff9bd218cae3299883fd8a6
four_sliders,morphant,the most impolite<br>person in the world,the most polite<br>person in the world,0.8,6,6849,2,positive,polite,polite,impolite,person,rude,Julia,female,1,cdb24dcf9ff9bd218cae3299883fd8a6
four_sliders,morphant,the most impolite<br>person in the world,the most polite<br>person in the world,0.16,6,6849,3,neg_positive,not polite,polite,impolite,person,rude,Melinda,female,1,cdb24dcf9ff9bd218cae3299883fd8a6
four_sliders,morphant,the most impolite<br>person in the world,the most polite<br>person in the world,0,6,6849,4,morphant,impolite,polite,impolite,person,rude,Angela,female,1,cdb24dcf9ff9bd218cae3299883fd8a6
four_sliders,morphant,the most irrational<br>person in the world,the most rational<br>person in the world,0,7,7909,1,morphant,irrational,rational,irrational,person,crazy,Claire,female,1,cdb24dcf9ff9bd218cae3299883fd8a6
four_sliders,morphant,the most irrational<br>person in the world,the most rational<br>person in the world,0.2,7,7909,2,neg_positive,not rational,rational,irrational,person,crazy,Monica,female,1,cdb24dcf9ff9bd218cae3299883fd8a6
four_sliders,morphant,the most irrational<br>person in the world,the most rational<br>person in the world,0.82,7,7909,3,positive,rational,rational,irrational,person,crazy,Veronica,female,1,cdb24dcf9ff9bd218cae3299883fd8a6
four_sliders,morphant,the most irrational<br>person in the world,the most rational<br>person in the world,0.5,7,7909,4,neg_neg_positive,not not rational,rational,irrational,person,crazy,Samuel,male,1,cdb24dcf9ff9bd218cae3299883fd8a6
four_sliders,morphant,the most uninteresting<br>person in the world,the most interesting<br>person in the world,0.18,8,8948,1,neg_positive,not interesting,interesting,uninteresting,person,boring,Gabriel,male,1,cdb24dcf9ff9bd218cae3299883fd8a6
four_sliders,morphant,the most uninteresting<br>person in the world,the most interesting<br>person in the world,0.83,8,8948,2,positive,interesting,interesting,uninteresting,person,boring,Jennifer,female,1,cdb24dcf9ff9bd218cae3299883fd8a6
four_sliders,morphant,the most uninteresting<br>person in the world,the most interesting<br>person in the world,0.5,8,8948,3,neg_neg_positive,not not interesting,interesting,uninteresting,person,boring,Michelle,female,1,cdb24dcf9ff9bd218cae3299883fd8a6
four_sliders,morphant,the most uninteresting<br>person in the world,the most interesting<br>person in the world,0.01,8,8948,4,morphant,uninteresting,interesting,uninteresting,person,boring,Mia,female,1,cdb24dcf9ff9bd218cae3299883fd8a6
four_sliders,morphant,the most unfriendly<br>person in the world,the most friendly<br>person in the world,0.21,9,8745,1,neg_positive,not friendly,friendly,unfriendly,person,mean,John,male,1,cdb24dcf9ff9bd218cae3299883fd8a6
four_sliders,morphant,the most unfriendly<br>person in the world,the most friendly<br>person in the world,0.01,9,8745,2,morphant,unfriendly,friendly,unfriendly,person,mean,Greg,male,1,cdb24dcf9ff9bd218cae3299883fd8a6
four_sliders,morphant,the most unfriendly<br>person in the world,the most friendly<br>person in the world,0.79,9,8745,3,positive,friendly,friendly,unfriendly,person,mean,Andrew,male,1,cdb24dcf9ff9bd218cae3299883fd8a6
four_sliders,morphant,the most unfriendly<br>person in the world,the most friendly<br>person in the world,0.5,9,8745,4,neg_neg_positive,not not friendly,friendly,unfriendly,person,mean,Jackie,female,1,cdb24dcf9ff9bd218cae3299883fd8a6
four_sliders,morphant,the most unreliable<br>person in the world,the most reliable<br>person in the world,0.49,10,7863,1,neg_neg_positive,not not reliable,reliable,unreliable,person,flaky,Stephanie,female,1,cdb24dcf9ff9bd218cae3299883fd8a6
four_sliders,morphant,the most unreliable<br>person in the world,the most reliable<br>person in the world,0.2,10,7863,2,neg_positive,not reliable,reliable,unreliable,person,flaky,Charles,male,1,cdb24dcf9ff9bd218cae3299883fd8a6
four_sliders,morphant,the most unreliable<br>person in the world,the most reliable<br>person in the world,0.8,10,7863,3,positive,reliable,reliable,unreliable,person,flaky,Anthony,male,1,cdb24dcf9ff9bd218cae3299883fd8a6
four_sliders,morphant,the most unreliable<br>person in the world,the most reliable<br>person in the world,0.01,10,7863,4,morphant,unreliable,reliable,unreliable,person,flaky,Alison,female,1,cdb24dcf9ff9bd218cae3299883fd8a6
four_sliders,morphant,the most unambitious<br>person in the world,the most ambitious<br>person in the world,0.17,11,6353,1,neg_positive,not ambitious,ambitious,unambitious,person,lazy,Brooke,female,1,cdb24dcf9ff9bd218cae3299883fd8a6
four_sliders,morphant,the most unambitious<br>person in the world,the most ambitious<br>person in the world,0.83,11,6353,2,positive,ambitious,ambitious,unambitious,person,lazy,Laura,female,1,cdb24dcf9ff9bd218cae3299883fd8a6
four_sliders,morphant,the most unambitious<br>person in the world,the most ambitious<br>person in the world,0.48,11,6353,3,neg_neg_positive,not not ambitious,ambitious,unambitious,person,lazy,Tom,male,1,cdb24dcf9ff9bd218cae3299883fd8a6
four_sliders,morphant,the most unambitious<br>person in the world,the most ambitious<br>person in the world,0.01,11,6353,4,morphant,unambitious,ambitious,unambitious,person,lazy,Lee,male,1,cdb24dcf9ff9bd218cae3299883fd8a6
four_sliders,morphant,the most unattractive<br>person in the world,the most attractive<br>person in the world,0.5,12,6229,1,neg_neg_positive,not not attractive,attractive,unattractive,person,ugly,Dylan,male,1,cdb24dcf9ff9bd218cae3299883fd8a6
four_sliders,morphant,the most unattractive<br>person in the world,the most attractive<br>person in the world,0.2,12,6229,2,neg_positive,not attractive,attractive,unattractive,person,ugly,Cameron,male,1,cdb24dcf9ff9bd218cae3299883fd8a6
four_sliders,morphant,the most unattractive<br>person in the world,the most attractive<br>person in the world,0.81,12,6229,3,positive,attractive,attractive,unattractive,person,ugly,Jeremy,male,1,cdb24dcf9ff9bd218cae3299883fd8a6
four_sliders,morphant,the most unattractive<br>person in the world,the most attractive<br>person in the world,0,12,6229,4,morphant,unattractive,attractive,unattractive,person,ugly,Nicole,female,1,cdb24dcf9ff9bd218cae3299883fd8a6
four_sliders,morphant,the most unaffectionate<br>person in the world,the most affectionate<br>person in the world,1,1,38270,1,positive,affectionate,affectionate,unaffectionate,person,cold,Jennifer,female,1,e238b5a840566cda00587f69ad95a225
four_sliders,morphant,the most unaffectionate<br>person in the world,the most affectionate<br>person in the world,0.64,1,38270,2,neg_positive,not affectionate,affectionate,unaffectionate,person,cold,Alicia,female,1,e238b5a840566cda00587f69ad95a225
four_sliders,morphant,the most unaffectionate<br>person in the world,the most affectionate<br>person in the world,0.03,1,38270,3,neg_neg_positive,not not affectionate,affectionate,unaffectionate,person,cold,Monica,female,1,e238b5a840566cda00587f69ad95a225
four_sliders,morphant,the most unaffectionate<br>person in the world,the most affectionate<br>person in the world,0.31,1,38270,4,morphant,unaffectionate,affectionate,unaffectionate,person,cold,Kathleen,female,1,e238b5a840566cda00587f69ad95a225
four_sliders,morphant,the most unfriendly<br>person in the world,the most friendly<br>person in the world,0.72,2,48691,1,morphant,unfriendly,friendly,unfriendly,person,mean,Maya,female,1,e238b5a840566cda00587f69ad95a225
four_sliders,morphant,the most unfriendly<br>person in the world,the most friendly<br>person in the world,0.36,2,48691,2,neg_positive,not friendly,friendly,unfriendly,person,mean,Stephen,male,1,e238b5a840566cda00587f69ad95a225
four_sliders,morphant,the most unfriendly<br>person in the world,the most friendly<br>person in the world,0.99,2,48691,3,positive,friendly,friendly,unfriendly,person,mean,Liam,male,1,e238b5a840566cda00587f69ad95a225
four_sliders,morphant,the most unfriendly<br>person in the world,the most friendly<br>person in the world,0.03,2,48691,4,neg_neg_positive,not not friendly,friendly,unfriendly,person,mean,Mia,female,1,e238b5a840566cda00587f69ad95a225
four_sliders,morphant,the most dishonest<br>person in the world,the most honest<br>person in the world,0.03,3,57260,1,morphant,dishonest,honest,dishonest,person,deceitful,Lee,male,1,e238b5a840566cda00587f69ad95a225
four_sliders,morphant,the most dishonest<br>person in the world,the most honest<br>person in the world,0.45,3,57260,2,neg_positive,not honest,honest,dishonest,person,deceitful,Michelle,female,1,e238b5a840566cda00587f69ad95a225
four_sliders,morphant,the most dishonest<br>person in the world,the most honest<br>person in the world,0.98,3,57260,3,positive,honest,honest,dishonest,person,deceitful,Sophia,female,1,e238b5a840566cda00587f69ad95a225
four_sliders,morphant,the most dishonest<br>person in the world,the most honest<br>person in the world,0.75,3,57260,4,neg_neg_positive,not not honest,honest,dishonest,person,deceitful,Sasha,female,1,e238b5a840566cda00587f69ad95a225
four_sliders,morphant,the most irrational<br>person in the world,the most rational<br>person in the world,0.02,4,14694,1,morphant,irrational,rational,irrational,person,crazy,Kim,female,1,e238b5a840566cda00587f69ad95a225
four_sliders,morphant,the most irrational<br>person in the world,the most rational<br>person in the world,0.69,4,14694,2,neg_neg_positive,not not rational,rational,irrational,person,crazy,Gabriel,male,1,e238b5a840566cda00587f69ad95a225
four_sliders,morphant,the most irrational<br>person in the world,the most rational<br>person in the world,0.98,4,14694,3,positive,rational,rational,irrational,person,crazy,Claire,female,1,e238b5a840566cda00587f69ad95a225
four_sliders,morphant,the most irrational<br>person in the world,the most rational<br>person in the world,0.33,4,14694,4,neg_positive,not rational,rational,irrational,person,crazy,Alexander,male,1,e238b5a840566cda00587f69ad95a225
four_sliders,morphant,the most intolerant<br>person in the world,the most tolerant<br>person in the world,0.76,5,21146,1,neg_neg_positive,not not tolerant,tolerant,intolerant,person,bigoted,Anthony,male,1,e238b5a840566cda00587f69ad95a225
four_sliders,morphant,the most intolerant<br>person in the world,the most tolerant<br>person in the world,0.3,5,21146,2,neg_positive,not tolerant,tolerant,intolerant,person,bigoted,Diana,female,1,e238b5a840566cda00587f69ad95a225
four_sliders,morphant,the most intolerant<br>person in the world,the most tolerant<br>person in the world,0.99,5,21146,3,positive,tolerant,tolerant,intolerant,person,bigoted,Lucas,male,1,e238b5a840566cda00587f69ad95a225
four_sliders,morphant,the most intolerant<br>person in the world,the most tolerant<br>person in the world,0.01,5,21146,4,morphant,intolerant,tolerant,intolerant,person,bigoted,Veronica,female,1,e238b5a840566cda00587f69ad95a225
four_sliders,morphant,the most unresourceful<br>person in the world,the most resourceful<br>person in the world,0.68,6,40609,1,neg_neg_positive,not not resourceful,resourceful,unresourceful,person,wasteful,John,male,1,e238b5a840566cda00587f69ad95a225
four_sliders,morphant,the most unresourceful<br>person in the world,the most resourceful<br>person in the world,0.31,6,40609,2,neg_positive,not resourceful,resourceful,unresourceful,person,wasteful,Emma,female,1,e238b5a840566cda00587f69ad95a225
four_sliders,morphant,the most unresourceful<br>person in the world,the most resourceful<br>person in the world,0.99,6,40609,3,positive,resourceful,resourceful,unresourceful,person,wasteful,Noah,male,1,e238b5a840566cda00587f69ad95a225
four_sliders,morphant,the most unresourceful<br>person in the world,the most resourceful<br>person in the world,0.02,6,40609,4,morphant,unresourceful,resourceful,unresourceful,person,wasteful,William,male,1,e238b5a840566cda00587f69ad95a225
four_sliders,morphant,the most unintelligent<br>person in the world,the most intelligent<br>person in the world,0.31,7,38655,1,neg_positive,not intelligent,intelligent,unintelligent,person,stupid,Angela,female,1,e238b5a840566cda00587f69ad95a225
four_sliders,morphant,the most unintelligent<br>person in the world,the most intelligent<br>person in the world,0.99,7,38655,2,positive,intelligent,intelligent,unintelligent,person,stupid,Charles,male,1,e238b5a840566cda00587f69ad95a225
four_sliders,morphant,the most unintelligent<br>person in the world,the most intelligent<br>person in the world,0,7,38655,3,morphant,unintelligent,intelligent,unintelligent,person,stupid,Greg,male,1,e238b5a840566cda00587f69ad95a225
four_sliders,morphant,the most unintelligent<br>person in the world,the most intelligent<br>person in the world,0.69,7,38655,4,neg_neg_positive,not not intelligent,intelligent,unintelligent,person,stupid,Daniel,male,1,e238b5a840566cda00587f69ad95a225
four_sliders,morphant,the most unreliable<br>person in the world,the most reliable<br>person in the world,0.27,8,23635,1,neg_positive,not reliable,reliable,unreliable,person,flaky,Michael,male,1,e238b5a840566cda00587f69ad95a225
four_sliders,morphant,the most unreliable<br>person in the world,the most reliable<br>person in the world,0.01,8,23635,2,morphant,unreliable,reliable,unreliable,person,flaky,Stephanie,female,1,e238b5a840566cda00587f69ad95a225
four_sliders,morphant,the most unreliable<br>person in the world,the most reliable<br>person in the world,1,8,23635,3,positive,reliable,reliable,unreliable,person,flaky,Mason,male,1,e238b5a840566cda00587f69ad95a225
four_sliders,morphant,the most unreliable<br>person in the world,the most reliable<br>person in the world,0.72,8,23635,4,neg_neg_positive,not not reliable,reliable,unreliable,person,flaky,Jackie,female,1,e238b5a840566cda00587f69ad95a225
four_sliders,morphant,the most impolite<br>person in the world,the most polite<br>person in the world,0.71,9,8367,1,neg_neg_positive,not not polite,polite,impolite,person,rude,Jeremy,male,1,e238b5a840566cda00587f69ad95a225
four_sliders,morphant,the most impolite<br>person in the world,the most polite<br>person in the world,0.98,9,8367,2,positive,polite,polite,impolite,person,rude,Laura,female,1,e238b5a840566cda00587f69ad95a225
four_sliders,morphant,the most impolite<br>person in the world,the most polite<br>person in the world,0.37,9,8367,3,neg_positive,not polite,polite,impolite,person,rude,Cameron,male,1,e238b5a840566cda00587f69ad95a225
four_sliders,morphant,the most impolite<br>person in the world,the most polite<br>person in the world,0.02,9,8367,4,morphant,impolite,polite,impolite,person,rude,David,male,1,e238b5a840566cda00587f69ad95a225
four_sliders,morphant,the most unforgiving<br>person in the world,the most forgiving<br>person in the world,0.02,10,12252,1,morphant,unforgiving,forgiving,unforgiving,person,resentful,Amber,female,1,e238b5a840566cda00587f69ad95a225
four_sliders,morphant,the most unforgiving<br>person in the world,the most forgiving<br>person in the world,0.99,10,12252,2,positive,forgiving,forgiving,unforgiving,person,resentful,Melinda,female,1,e238b5a840566cda00587f69ad95a225
four_sliders,morphant,the most unforgiving<br>person in the world,the most forgiving<br>person in the world,0.26,10,12252,3,neg_positive,not forgiving,forgiving,unforgiving,person,resentful,Alison,female,1,e238b5a840566cda00587f69ad95a225
four_sliders,morphant,the most unforgiving<br>person in the world,the most forgiving<br>person in the world,0.79,10,12252,4,neg_neg_positive,not not forgiving,forgiving,unforgiving,person,resentful,Samuel,male,1,e238b5a840566cda00587f69ad95a225
four_sliders,morphant,the most unattractive<br>person in the world,the most attractive<br>person in the world,0.01,11,17892,1,morphant,unattractive,attractive,unattractive,person,ugly,Julia,female,1,e238b5a840566cda00587f69ad95a225
four_sliders,morphant,the most unattractive<br>person in the world,the most attractive<br>person in the world,0.77,11,17892,2,neg_neg_positive,not not attractive,attractive,unattractive,person,ugly,Jacob,male,1,e238b5a840566cda00587f69ad95a225
four_sliders,morphant,the most unattractive<br>person in the world,the most attractive<br>person in the world,0.99,11,17892,3,positive,attractive,attractive,unattractive,person,ugly,Dylan,male,1,e238b5a840566cda00587f69ad95a225
four_sliders,morphant,the most unattractive<br>person in the world,the most attractive<br>person in the world,0.28,11,17892,4,neg_positive,not attractive,attractive,unattractive,person,ugly,Nicole,female,1,e238b5a840566cda00587f69ad95a225
four_sliders,morphant,the most immature<br>person in the world,the most mature<br>person in the world,0.29,12,15500,1,neg_positive,not mature,mature,immature,person,childish,Brooke,female,1,e238b5a840566cda00587f69ad95a225
four_sliders,morphant,the most immature<br>person in the world,the most mature<br>person in the world,0.76,12,15500,2,neg_neg_positive,not not mature,mature,immature,person,childish,Tom,male,1,e238b5a840566cda00587f69ad95a225
four_sliders,morphant,the most immature<br>person in the world,the most mature<br>person in the world,0.98,12,15500,3,positive,mature,mature,immature,person,childish,Andrew,male,1,e238b5a840566cda00587f69ad95a225
four_sliders,morphant,the most immature<br>person in the world,the most mature<br>person in the world,0.02,12,15500,4,morphant,immature,mature,immature,person,childish,Eric,male,1,e238b5a840566cda00587f69ad95a225
four_sliders,morphant,the most unattractive<br>person in the world,the most attractive<br>person in the world,0.24,1,29409,1,morphant,unattractive,attractive,unattractive,person,ugly,Jackie,female,1,009d5c1ba95b1bb0b841c4edaaac672b
four_sliders,morphant,the most unattractive<br>person in the world,the most attractive<br>person in the world,0.67,1,29409,2,positive,attractive,attractive,unattractive,person,ugly,Nicole,female,1,009d5c1ba95b1bb0b841c4edaaac672b
four_sliders,morphant,the most unattractive<br>person in the world,the most attractive<br>person in the world,0.23,1,29409,3,neg_positive,not attractive,attractive,unattractive,person,ugly,Emma,female,1,009d5c1ba95b1bb0b841c4edaaac672b
four_sliders,morphant,the most unattractive<br>person in the world,the most attractive<br>person in the world,0.5,1,29409,4,neg_neg_positive,not not attractive,attractive,unattractive,person,ugly,Anthony,male,1,009d5c1ba95b1bb0b841c4edaaac672b
four_sliders,morphant,the most dishonest<br>person in the world,the most honest<br>person in the world,0.52,2,14140,1,neg_neg_positive,not not honest,honest,dishonest,person,deceitful,Brooke,female,1,009d5c1ba95b1bb0b841c4edaaac672b
four_sliders,morphant,the most dishonest<br>person in the world,the most honest<br>person in the world,0.31,2,14140,2,neg_positive,not honest,honest,dishonest,person,deceitful,Claire,female,1,009d5c1ba95b1bb0b841c4edaaac672b
four_sliders,morphant,the most dishonest<br>person in the world,the most honest<br>person in the world,0.21,2,14140,3,morphant,dishonest,honest,dishonest,person,deceitful,Michael,male,1,009d5c1ba95b1bb0b841c4edaaac672b
four_sliders,morphant,the most dishonest<br>person in the world,the most honest<br>person in the world,0.68,2,14140,4,positive,honest,honest,dishonest,person,deceitful,Laura,female,1,009d5c1ba95b1bb0b841c4edaaac672b
four_sliders,morphant,the most uninteresting<br>person in the world,the most interesting<br>person in the world,0.25,3,17518,1,neg_positive,not interesting,interesting,uninteresting,person,boring,Kim,female,1,009d5c1ba95b1bb0b841c4edaaac672b
four_sliders,morphant,the most uninteresting<br>person in the world,the most interesting<br>person in the world,0.53,3,17518,2,neg_neg_positive,not not interesting,interesting,uninteresting,person,boring,Diana,female,1,009d5c1ba95b1bb0b841c4edaaac672b
four_sliders,morphant,the most uninteresting<br>person in the world,the most interesting<br>person in the world,0.35,3,17518,3,morphant,uninteresting,interesting,uninteresting,person,boring,Stephen,male,1,009d5c1ba95b1bb0b841c4edaaac672b
four_sliders,morphant,the most uninteresting<br>person in the world,the most interesting<br>person in the world,0.62,3,17518,4,positive,interesting,interesting,uninteresting,person,boring,Kathleen,female,1,009d5c1ba95b1bb0b841c4edaaac672b
four_sliders,morphant,the most unaffectionate<br>person in the world,the most affectionate<br>person in the world,0.65,4,11193,1,positive,affectionate,affectionate,unaffectionate,person,cold,Liam,male,1,009d5c1ba95b1bb0b841c4edaaac672b
four_sliders,morphant,the most unaffectionate<br>person in the world,the most affectionate<br>person in the world,0.52,4,11193,2,neg_neg_positive,not not affectionate,affectionate,unaffectionate,person,cold,Melinda,female,1,009d5c1ba95b1bb0b841c4edaaac672b
four_sliders,morphant,the most unaffectionate<br>person in the world,the most affectionate<br>person in the world,0.37,4,11193,3,neg_positive,not affectionate,affectionate,unaffectionate,person,cold,Noah,male,1,009d5c1ba95b1bb0b841c4edaaac672b
four_sliders,morphant,the most unaffectionate<br>person in the world,the most affectionate<br>person in the world,0.19,4,11193,4,morphant,unaffectionate,affectionate,unaffectionate,person,cold,Alexander,male,1,009d5c1ba95b1bb0b841c4edaaac672b
four_sliders,morphant,the most unpatriotic<br>person in the world,the most patriotic<br>person in the world,0.28,5,8845,1,morphant,unpatriotic,patriotic,unpatriotic,person,traitorous,Charles,male,1,009d5c1ba95b1bb0b841c4edaaac672b
four_sliders,morphant,the most unpatriotic<br>person in the world,the most patriotic<br>person in the world,0.41,5,8845,2,neg_positive,not patriotic,patriotic,unpatriotic,person,traitorous,Jacob,male,1,009d5c1ba95b1bb0b841c4edaaac672b
four_sliders,morphant,the most unpatriotic<br>person in the world,the most patriotic<br>person in the world,0.51,5,8845,3,neg_neg_positive,not not patriotic,patriotic,unpatriotic,person,traitorous,John,male,1,009d5c1ba95b1bb0b841c4edaaac672b
four_sliders,morphant,the most unpatriotic<br>person in the world,the most patriotic<br>person in the world,0.7,5,8845,4,positive,patriotic,patriotic,unpatriotic,person,traitorous,Angela,female,1,009d5c1ba95b1bb0b841c4edaaac672b
four_sliders,morphant,the most unforgiving<br>person in the world,the most forgiving<br>person in the world,0.34,6,11888,1,morphant,unforgiving,forgiving,unforgiving,person,resentful,Mason,male,1,009d5c1ba95b1bb0b841c4edaaac672b
four_sliders,morphant,the most unforgiving<br>person in the world,the most forgiving<br>person in the world,0.64,6,11888,2,positive,forgiving,forgiving,unforgiving,person,resentful,William,male,1,009d5c1ba95b1bb0b841c4edaaac672b
four_sliders,morphant,the most unforgiving<br>person in the world,the most forgiving<br>person in the world,0.29,6,11888,3,neg_positive,not forgiving,forgiving,unforgiving,person,resentful,Stephanie,female,1,009d5c1ba95b1bb0b841c4edaaac672b
four_sliders,morphant,the most unforgiving<br>person in the world,the most forgiving<br>person in the world,0.53,6,11888,4,neg_neg_positive,not not forgiving,forgiving,unforgiving,person,resentful,Tom,male,1,009d5c1ba95b1bb0b841c4edaaac672b
four_sliders,morphant,the most unfriendly<br>person in the world,the most friendly<br>person in the world,0.54,7,9306,1,neg_neg_positive,not not friendly,friendly,unfriendly,person,mean,Amber,female,1,009d5c1ba95b1bb0b841c4edaaac672b
four_sliders,morphant,the most unfriendly<br>person in the world,the most friendly<br>person in the world,0.26,7,9306,2,morphant,unfriendly,friendly,unfriendly,person,mean,Greg,male,1,009d5c1ba95b1bb0b841c4edaaac672b
four_sliders,morphant,the most unfriendly<br>person in the world,the most friendly<br>person in the world,0.71,7,9306,3,positive,friendly,friendly,unfriendly,person,mean,David,male,1,009d5c1ba95b1bb0b841c4edaaac672b
four_sliders,morphant,the most unfriendly<br>person in the world,the most friendly<br>person in the world,0.4,7,9306,4,neg_positive,not friendly,friendly,unfriendly,person,mean,Mia,female,1,009d5c1ba95b1bb0b841c4edaaac672b
four_sliders,morphant,the most unresourceful<br>person in the world,the most resourceful<br>person in the world,0.52,8,9632,1,neg_neg_positive,not not resourceful,resourceful,unresourceful,person,wasteful,Daniel,male,1,009d5c1ba95b1bb0b841c4edaaac672b
four_sliders,morphant,the most unresourceful<br>person in the world,the most resourceful<br>person in the world,0.29,8,9632,2,neg_positive,not resourceful,resourceful,unresourceful,person,wasteful,Dylan,male,1,009d5c1ba95b1bb0b841c4edaaac672b
four_sliders,morphant,the most unresourceful<br>person in the world,the most resourceful<br>person in the world,0.35,8,9632,3,morphant,unresourceful,resourceful,unresourceful,person,wasteful,Sophia,female,1,009d5c1ba95b1bb0b841c4edaaac672b
four_sliders,morphant,the most unresourceful<br>person in the world,the most resourceful<br>person in the world,0.73,8,9632,4,positive,resourceful,resourceful,unresourceful,person,wasteful,Alison,female,1,009d5c1ba95b1bb0b841c4edaaac672b
four_sliders,morphant,the most ungenerous<br>person in the world,the most generous<br>person in the world,0.32,9,12701,1,morphant,ungenerous,generous,ungenerous,person,stingy,Michelle,female,1,009d5c1ba95b1bb0b841c4edaaac672b
four_sliders,morphant,the most ungenerous<br>person in the world,the most generous<br>person in the world,0.52,9,12701,2,neg_neg_positive,not not generous,generous,ungenerous,person,stingy,Jennifer,female,1,009d5c1ba95b1bb0b841c4edaaac672b
four_sliders,morphant,the most ungenerous<br>person in the world,the most generous<br>person in the world,0.24,9,12701,3,neg_positive,not generous,generous,ungenerous,person,stingy,Cameron,male,1,009d5c1ba95b1bb0b841c4edaaac672b
four_sliders,morphant,the most ungenerous<br>person in the world,the most generous<br>person in the world,0.67,9,12701,4,positive,generous,generous,ungenerous,person,stingy,Lucas,male,1,009d5c1ba95b1bb0b841c4edaaac672b
four_sliders,morphant,the most unhappy<br>person in the world,the most happy<br>person in the world,0.53,10,9694,1,neg_neg_positive,not not happy,happy,unhappy,person,sad,Monica,female,1,009d5c1ba95b1bb0b841c4edaaac672b
four_sliders,morphant,the most unhappy<br>person in the world,the most happy<br>person in the world,0.64,10,9694,2,positive,happy,happy,unhappy,person,sad,Alicia,female,1,009d5c1ba95b1bb0b841c4edaaac672b
four_sliders,morphant,the most unhappy<br>person in the world,the most happy<br>person in the world,0.27,10,9694,3,morphant,unhappy,happy,unhappy,person,sad,Samuel,male,1,009d5c1ba95b1bb0b841c4edaaac672b
four_sliders,morphant,the most unhappy<br>person in the world,the most happy<br>person in the world,0.38,10,9694,4,neg_positive,not happy,happy,unhappy,person,sad,Maya,female,1,009d5c1ba95b1bb0b841c4edaaac672b
four_sliders,morphant,the most immature<br>person in the world,the most mature<br>person in the world,0.3,11,9518,1,morphant,immature,mature,immature,person,childish,Lee,male,1,009d5c1ba95b1bb0b841c4edaaac672b
four_sliders,morphant,the most immature<br>person in the world,the most mature<br>person in the world,0.37,11,9518,2,neg_positive,not mature,mature,immature,person,childish,Sasha,female,1,009d5c1ba95b1bb0b841c4edaaac672b
four_sliders,morphant,the most immature<br>person in the world,the most mature<br>person in the world,0.74,11,9518,3,positive,mature,mature,immature,person,childish,Veronica,female,1,009d5c1ba95b1bb0b841c4edaaac672b
four_sliders,morphant,the most immature<br>person in the world,the most mature<br>person in the world,0.54,11,9518,4,neg_neg_positive,not not mature,mature,immature,person,childish,Eric,male,1,009d5c1ba95b1bb0b841c4edaaac672b
four_sliders,morphant,the most impolite<br>person in the world,the most polite<br>person in the world,0.31,12,10565,1,morphant,impolite,polite,impolite,person,rude,Jeremy,male,1,009d5c1ba95b1bb0b841c4edaaac672b
four_sliders,morphant,the most impolite<br>person in the world,the most polite<br>person in the world,0.61,12,10565,2,positive,polite,polite,impolite,person,rude,Gabriel,male,1,009d5c1ba95b1bb0b841c4edaaac672b
four_sliders,morphant,the most impolite<br>person in the world,the most polite<br>person in the world,0.26,12,10565,3,neg_positive,not polite,polite,impolite,person,rude,Andrew,male,1,009d5c1ba95b1bb0b841c4edaaac672b
four_sliders,morphant,the most impolite<br>person in the world,the most polite<br>person in the world,0.52,12,10565,4,neg_neg_positive,not not polite,polite,impolite,person,rude,Julia,female,1,009d5c1ba95b1bb0b841c4edaaac672b
four_sliders,morphant,the most unresourceful<br>person in the world,the most resourceful<br>person in the world,0.61,1,24316,1,neg_neg_positive,not not resourceful,resourceful,unresourceful,person,wasteful,Alison,female,1,e5927e80fc20543641b7d15f5da5a2a3
four_sliders,morphant,the most unresourceful<br>person in the world,the most resourceful<br>person in the world,0.26,1,24316,2,morphant,unresourceful,resourceful,unresourceful,person,wasteful,Lee,male,1,e5927e80fc20543641b7d15f5da5a2a3
four_sliders,morphant,the most unresourceful<br>person in the world,the most resourceful<br>person in the world,0.24,1,24316,3,neg_positive,not resourceful,resourceful,unresourceful,person,wasteful,Monica,female,1,e5927e80fc20543641b7d15f5da5a2a3
four_sliders,morphant,the most unresourceful<br>person in the world,the most resourceful<br>person in the world,0.89,1,24316,4,positive,resourceful,resourceful,unresourceful,person,wasteful,Anthony,male,1,e5927e80fc20543641b7d15f5da5a2a3
four_sliders,morphant,the most dishonest<br>person in the world,the most honest<br>person in the world,0.58,2,12016,1,neg_neg_positive,not not honest,honest,dishonest,person,deceitful,Mia,female,1,e5927e80fc20543641b7d15f5da5a2a3
four_sliders,morphant,the most dishonest<br>person in the world,the most honest<br>person in the world,0.22,2,12016,2,morphant,dishonest,honest,dishonest,person,deceitful,Cameron,male,1,e5927e80fc20543641b7d15f5da5a2a3
four_sliders,morphant,the most dishonest<br>person in the world,the most honest<br>person in the world,0.3,2,12016,3,neg_positive,not honest,honest,dishonest,person,deceitful,Michael,male,1,e5927e80fc20543641b7d15f5da5a2a3
four_sliders,morphant,the most dishonest<br>person in the world,the most honest<br>person in the world,0.8,2,12016,4,positive,honest,honest,dishonest,person,deceitful,Stephen,male,1,e5927e80fc20543641b7d15f5da5a2a3
four_sliders,morphant,the most uninteresting<br>person in the world,the most interesting<br>person in the world,0.24,3,9851,1,neg_positive,not interesting,interesting,uninteresting,person,boring,Eric,male,1,e5927e80fc20543641b7d15f5da5a2a3
four_sliders,morphant,the most uninteresting<br>person in the world,the most interesting<br>person in the world,0.52,3,9851,2,neg_neg_positive,not not interesting,interesting,uninteresting,person,boring,Nicole,female,1,e5927e80fc20543641b7d15f5da5a2a3
four_sliders,morphant,the most uninteresting<br>person in the world,the most interesting<br>person in the world,0.79,3,9851,3,positive,interesting,interesting,uninteresting,person,boring,Tom,male,1,e5927e80fc20543641b7d15f5da5a2a3
four_sliders,morphant,the most uninteresting<br>person in the world,the most interesting<br>person in the world,0.34,3,9851,4,morphant,uninteresting,interesting,uninteresting,person,boring,Alicia,female,1,e5927e80fc20543641b7d15f5da5a2a3
four_sliders,morphant,the most unaffectionate<br>person in the world,the most affectionate<br>person in the world,0.23,4,10408,1,neg_positive,not affectionate,affectionate,unaffectionate,person,cold,Sasha,female,1,e5927e80fc20543641b7d15f5da5a2a3
four_sliders,morphant,the most unaffectionate<br>person in the world,the most affectionate<br>person in the world,0.8,4,10408,2,positive,affectionate,affectionate,unaffectionate,person,cold,David,male,1,e5927e80fc20543641b7d15f5da5a2a3
four_sliders,morphant,the most unaffectionate<br>person in the world,the most affectionate<br>person in the world,0.22,4,10408,3,morphant,unaffectionate,affectionate,unaffectionate,person,cold,Amber,female,1,e5927e80fc20543641b7d15f5da5a2a3
four_sliders,morphant,the most unaffectionate<br>person in the world,the most affectionate<br>person in the world,0.6,4,10408,4,neg_neg_positive,not not affectionate,affectionate,unaffectionate,person,cold,Stephanie,female,1,e5927e80fc20543641b7d15f5da5a2a3
four_sliders,morphant,the most unattractive<br>person in the world,the most attractive<br>person in the world,0.23,5,6795,1,morphant,unattractive,attractive,unattractive,person,ugly,Laura,female,1,e5927e80fc20543641b7d15f5da5a2a3
four_sliders,morphant,the most unattractive<br>person in the world,the most attractive<br>person in the world,0.62,5,6795,2,neg_neg_positive,not not attractive,attractive,unattractive,person,ugly,Andrew,male,1,e5927e80fc20543641b7d15f5da5a2a3
four_sliders,morphant,the most unattractive<br>person in the world,the most attractive<br>person in the world,0.79,5,6795,3,positive,attractive,attractive,unattractive,person,ugly,Brooke,female,1,e5927e80fc20543641b7d15f5da5a2a3
four_sliders,morphant,the most unattractive<br>person in the world,the most attractive<br>person in the world,0.21,5,6795,4,neg_positive,not attractive,attractive,unattractive,person,ugly,Emma,female,1,e5927e80fc20543641b7d15f5da5a2a3
four_sliders,morphant,the most unfriendly<br>person in the world,the most friendly<br>person in the world,0.18,6,7488,1,neg_positive,not friendly,friendly,unfriendly,person,mean,Alexander,male,1,e5927e80fc20543641b7d15f5da5a2a3
four_sliders,morphant,the most unfriendly<br>person in the world,the most friendly<br>person in the world,0.18,6,7488,2,morphant,unfriendly,friendly,unfriendly,person,mean,Noah,male,1,e5927e80fc20543641b7d15f5da5a2a3
four_sliders,morphant,the most unfriendly<br>person in the world,the most friendly<br>person in the world,0.8,6,7488,3,positive,friendly,friendly,unfriendly,person,mean,Jackie,female,1,e5927e80fc20543641b7d15f5da5a2a3
four_sliders,morphant,the most unfriendly<br>person in the world,the most friendly<br>person in the world,0.65,6,7488,4,neg_neg_positive,not not friendly,friendly,unfriendly,person,mean,Angela,female,1,e5927e80fc20543641b7d15f5da5a2a3
four_sliders,morphant,the most unforgiving<br>person in the world,the most forgiving<br>person in the world,0.18,7,5897,1,morphant,unforgiving,forgiving,unforgiving,person,resentful,Charles,male,1,e5927e80fc20543641b7d15f5da5a2a3
four_sliders,morphant,the most unforgiving<br>person in the world,the most forgiving<br>person in the world,0.18,7,5897,2,neg_positive,not forgiving,forgiving,unforgiving,person,resentful,John,male,1,e5927e80fc20543641b7d15f5da5a2a3
four_sliders,morphant,the most unforgiving<br>person in the world,the most forgiving<br>person in the world,0.65,7,5897,3,neg_neg_positive,not not forgiving,forgiving,unforgiving,person,resentful,Kim,female,1,e5927e80fc20543641b7d15f5da5a2a3
four_sliders,morphant,the most unforgiving<br>person in the world,the most forgiving<br>person in the world,0.84,7,5897,4,positive,forgiving,forgiving,unforgiving,person,resentful,William,male,1,e5927e80fc20543641b7d15f5da5a2a3
four_sliders,morphant,the most immature<br>person in the world,the most mature<br>person in the world,0.77,8,8807,1,positive,mature,mature,immature,person,childish,Melinda,female,1,e5927e80fc20543641b7d15f5da5a2a3
four_sliders,morphant,the most immature<br>person in the world,the most mature<br>person in the world,0.2,8,8807,2,morphant,immature,mature,immature,person,childish,Michelle,female,1,e5927e80fc20543641b7d15f5da5a2a3
four_sliders,morphant,the most immature<br>person in the world,the most mature<br>person in the world,0.62,8,8807,3,neg_neg_positive,not not mature,mature,immature,person,childish,Greg,male,1,e5927e80fc20543641b7d15f5da5a2a3
four_sliders,morphant,the most immature<br>person in the world,the most mature<br>person in the world,0.24,8,8807,4,neg_positive,not mature,mature,immature,person,childish,Gabriel,male,1,e5927e80fc20543641b7d15f5da5a2a3
four_sliders,morphant,the most unambitious<br>person in the world,the most ambitious<br>person in the world,0.21,9,6131,1,morphant,unambitious,ambitious,unambitious,person,lazy,Maya,female,1,e5927e80fc20543641b7d15f5da5a2a3
four_sliders,morphant,the most unambitious<br>person in the world,the most ambitious<br>person in the world,0.59,9,6131,2,neg_neg_positive,not not ambitious,ambitious,unambitious,person,lazy,Daniel,male,1,e5927e80fc20543641b7d15f5da5a2a3
four_sliders,morphant,the most unambitious<br>person in the world,the most ambitious<br>person in the world,0.81,9,6131,3,positive,ambitious,ambitious,unambitious,person,lazy,Julia,female,1,e5927e80fc20543641b7d15f5da5a2a3
four_sliders,morphant,the most unambitious<br>person in the world,the most ambitious<br>person in the world,0.23,9,6131,4,neg_positive,not ambitious,ambitious,unambitious,person,lazy,Claire,female,1,e5927e80fc20543641b7d15f5da5a2a3
four_sliders,morphant,the most uneducated<br>person in the world,the most educated<br>person in the world,0.29,10,9712,1,neg_positive,not educated,educated,uneducated,person,ignorant,Dylan,male,1,e5927e80fc20543641b7d15f5da5a2a3
four_sliders,morphant,the most uneducated<br>person in the world,the most educated<br>person in the world,0.81,10,9712,2,positive,educated,educated,uneducated,person,ignorant,Kathleen,female,1,e5927e80fc20543641b7d15f5da5a2a3
four_sliders,morphant,the most uneducated<br>person in the world,the most educated<br>person in the world,0.19,10,9712,3,morphant,uneducated,educated,uneducated,person,ignorant,Liam,male,1,e5927e80fc20543641b7d15f5da5a2a3
four_sliders,morphant,the most uneducated<br>person in the world,the most educated<br>person in the world,0.64,10,9712,4,neg_neg_positive,not not educated,educated,uneducated,person,ignorant,Jacob,male,1,e5927e80fc20543641b7d15f5da5a2a3
four_sliders,morphant,the most impolite<br>person in the world,the most polite<br>person in the world,0.81,11,6323,1,positive,polite,polite,impolite,person,rude,Jeremy,male,1,e5927e80fc20543641b7d15f5da5a2a3
four_sliders,morphant,the most impolite<br>person in the world,the most polite<br>person in the world,0.11,11,6323,2,morphant,impolite,polite,impolite,person,rude,Lucas,male,1,e5927e80fc20543641b7d15f5da5a2a3
four_sliders,morphant,the most impolite<br>person in the world,the most polite<br>person in the world,0.64,11,6323,3,neg_neg_positive,not not polite,polite,impolite,person,rude,Diana,female,1,e5927e80fc20543641b7d15f5da5a2a3
four_sliders,morphant,the most impolite<br>person in the world,the most polite<br>person in the world,0.21,11,6323,4,neg_positive,not polite,polite,impolite,person,rude,Veronica,female,1,e5927e80fc20543641b7d15f5da5a2a3
four_sliders,morphant,the most ungenerous<br>person in the world,the most generous<br>person in the world,0.27,12,6841,1,morphant,ungenerous,generous,ungenerous,person,stingy,Mason,male,1,e5927e80fc20543641b7d15f5da5a2a3
four_sliders,morphant,the most ungenerous<br>person in the world,the most generous<br>person in the world,0.63,12,6841,2,neg_neg_positive,not not generous,generous,ungenerous,person,stingy,Sophia,female,1,e5927e80fc20543641b7d15f5da5a2a3
four_sliders,morphant,the most ungenerous<br>person in the world,the most generous<br>person in the world,0.83,12,6841,3,positive,generous,generous,ungenerous,person,stingy,Samuel,male,1,e5927e80fc20543641b7d15f5da5a2a3
four_sliders,morphant,the most ungenerous<br>person in the world,the most generous<br>person in the world,0.21,12,6841,4,neg_positive,not generous,generous,ungenerous,person,stingy,Jennifer,female,1,e5927e80fc20543641b7d15f5da5a2a3
four_sliders,morphant,the most unfriendly<br>person in the world,the most friendly<br>person in the world,0.26,1,35272,1,neg_positive,not friendly,friendly,unfriendly,person,mean,Greg,male,1,5241c2fe9605cc466afffb02a089f055
four_sliders,morphant,the most unfriendly<br>person in the world,the most friendly<br>person in the world,0.27,1,35272,2,morphant,unfriendly,friendly,unfriendly,person,mean,Julia,female,1,5241c2fe9605cc466afffb02a089f055
four_sliders,morphant,the most unfriendly<br>person in the world,the most friendly<br>person in the world,0.75,1,35272,3,positive,friendly,friendly,unfriendly,person,mean,Liam,male,1,5241c2fe9605cc466afffb02a089f055
four_sliders,morphant,the most unfriendly<br>person in the world,the most friendly<br>person in the world,0.76,1,35272,4,neg_neg_positive,not not friendly,friendly,unfriendly,person,mean,Veronica,female,1,5241c2fe9605cc466afffb02a089f055
four_sliders,morphant,the most unkind<br>person in the world,the most kind<br>person in the world,0.73,2,27552,1,neg_neg_positive,not not kind,kind,unkind,person,cruel,Michelle,female,1,5241c2fe9605cc466afffb02a089f055
four_sliders,morphant,the most unkind<br>person in the world,the most kind<br>person in the world,0.23,2,27552,2,neg_positive,not kind,kind,unkind,person,cruel,Noah,male,1,5241c2fe9605cc466afffb02a089f055
four_sliders,morphant,the most unkind<br>person in the world,the most kind<br>person in the world,0.74,2,27552,3,positive,kind,kind,unkind,person,cruel,Sophia,female,1,5241c2fe9605cc466afffb02a089f055
four_sliders,morphant,the most unkind<br>person in the world,the most kind<br>person in the world,0.24,2,27552,4,morphant,unkind,kind,unkind,person,cruel,Nicole,female,1,5241c2fe9605cc466afffb02a089f055
four_sliders,morphant,the most unattractive<br>person in the world,the most attractive<br>person in the world,0.23,3,22277,1,neg_positive,not attractive,attractive,unattractive,person,ugly,Andrew,male,1,5241c2fe9605cc466afffb02a089f055
four_sliders,morphant,the most unattractive<br>person in the world,the most attractive<br>person in the world,0.81,3,22277,2,positive,attractive,attractive,unattractive,person,ugly,Mia,female,1,5241c2fe9605cc466afffb02a089f055
four_sliders,morphant,the most unattractive<br>person in the world,the most attractive<br>person in the world,0.8,3,22277,3,neg_neg_positive,not not attractive,attractive,unattractive,person,ugly,Emma,female,1,5241c2fe9605cc466afffb02a089f055
four_sliders,morphant,the most unattractive<br>person in the world,the most attractive<br>person in the world,0.21,3,22277,4,morphant,unattractive,attractive,unattractive,person,ugly,Lucas,male,1,5241c2fe9605cc466afffb02a089f055
four_sliders,morphant,the most unambitious<br>person in the world,the most ambitious<br>person in the world,0.75,4,25411,1,positive,ambitious,ambitious,unambitious,person,lazy,Samuel,male,1,5241c2fe9605cc466afffb02a089f055
four_sliders,morphant,the most unambitious<br>person in the world,the most ambitious<br>person in the world,0.21,4,25411,2,neg_positive,not ambitious,ambitious,unambitious,person,lazy,Mason,male,1,5241c2fe9605cc466afffb02a089f055
four_sliders,morphant,the most unambitious<br>person in the world,the most ambitious<br>person in the world,0.79,4,25411,3,neg_neg_positive,not not ambitious,ambitious,unambitious,person,lazy,Alexander,male,1,5241c2fe9605cc466afffb02a089f055
four_sliders,morphant,the most unambitious<br>person in the world,the most ambitious<br>person in the world,0.24,4,25411,4,morphant,unambitious,ambitious,unambitious,person,lazy,Daniel,male,1,5241c2fe9605cc466afffb02a089f055
four_sliders,morphant,the most unintelligent<br>person in the world,the most intelligent<br>person in the world,0.72,5,15020,1,neg_neg_positive,not not intelligent,intelligent,unintelligent,person,stupid,Gabriel,male,1,5241c2fe9605cc466afffb02a089f055
four_sliders,morphant,the most unintelligent<br>person in the world,the most intelligent<br>person in the world,0.17,5,15020,2,morphant,unintelligent,intelligent,unintelligent,person,stupid,Alison,female,1,5241c2fe9605cc466afffb02a089f055
four_sliders,morphant,the most unintelligent<br>person in the world,the most intelligent<br>person in the world,0.23,5,15020,3,neg_positive,not intelligent,intelligent,unintelligent,person,stupid,Diana,female,1,5241c2fe9605cc466afffb02a089f055
four_sliders,morphant,the most unintelligent<br>person in the world,the most intelligent<br>person in the world,0.75,5,15020,4,positive,intelligent,intelligent,unintelligent,person,stupid,Claire,female,1,5241c2fe9605cc466afffb02a089f055
four_sliders,morphant,the most ungenerous<br>person in the world,the most generous<br>person in the world,0.26,6,17713,1,morphant,ungenerous,generous,ungenerous,person,stingy,Laura,female,1,5241c2fe9605cc466afffb02a089f055
four_sliders,morphant,the most ungenerous<br>person in the world,the most generous<br>person in the world,0.25,6,17713,2,neg_positive,not generous,generous,ungenerous,person,stingy,Dylan,male,1,5241c2fe9605cc466afffb02a089f055
four_sliders,morphant,the most ungenerous<br>person in the world,the most generous<br>person in the world,0.77,6,17713,3,positive,generous,generous,ungenerous,person,stingy,Melinda,female,1,5241c2fe9605cc466afffb02a089f055
four_sliders,morphant,the most ungenerous<br>person in the world,the most generous<br>person in the world,0.76,6,17713,4,neg_neg_positive,not not generous,generous,ungenerous,person,stingy,Brooke,female,1,5241c2fe9605cc466afffb02a089f055
four_sliders,morphant,the most immature<br>person in the world,the most mature<br>person in the world,0.74,7,19170,1,positive,mature,mature,immature,person,childish,Monica,female,1,5241c2fe9605cc466afffb02a089f055
four_sliders,morphant,the most immature<br>person in the world,the most mature<br>person in the world,0.22,7,19170,2,neg_positive,not mature,mature,immature,person,childish,Charles,male,1,5241c2fe9605cc466afffb02a089f055
four_sliders,morphant,the most immature<br>person in the world,the most mature<br>person in the world,0.71,7,19170,3,neg_neg_positive,not not mature,mature,immature,person,childish,Stephanie,female,1,5241c2fe9605cc466afffb02a089f055
four_sliders,morphant,the most immature<br>person in the world,the most mature<br>person in the world,0.19,7,19170,4,morphant,immature,mature,immature,person,childish,Jacob,male,1,5241c2fe9605cc466afffb02a089f055
four_sliders,morphant,the most unforgiving<br>person in the world,the most forgiving<br>person in the world,0.18,8,19312,1,neg_positive,not forgiving,forgiving,unforgiving,person,resentful,Stephen,male,1,5241c2fe9605cc466afffb02a089f055
four_sliders,morphant,the most unforgiving<br>person in the world,the most forgiving<br>person in the world,0.76,8,19312,2,neg_neg_positive,not not forgiving,forgiving,unforgiving,person,resentful,Jeremy,male,1,5241c2fe9605cc466afffb02a089f055
four_sliders,morphant,the most unforgiving<br>person in the world,the most forgiving<br>person in the world,0.82,8,19312,3,positive,forgiving,forgiving,unforgiving,person,resentful,Jennifer,female,1,5241c2fe9605cc466afffb02a089f055
four_sliders,morphant,the most unforgiving<br>person in the world,the most forgiving<br>person in the world,0.25,8,19312,4,morphant,unforgiving,forgiving,unforgiving,person,resentful,Maya,female,1,5241c2fe9605cc466afffb02a089f055
four_sliders,morphant,the most irrational<br>person in the world,the most rational<br>person in the world,0.75,9,15387,1,positive,rational,rational,irrational,person,crazy,Kathleen,female,1,5241c2fe9605cc466afffb02a089f055
four_sliders,morphant,the most irrational<br>person in the world,the most rational<br>person in the world,0.68,9,15387,2,neg_neg_positive,not not rational,rational,irrational,person,crazy,Jackie,female,1,5241c2fe9605cc466afffb02a089f055
four_sliders,morphant,the most irrational<br>person in the world,the most rational<br>person in the world,0.26,9,15387,3,neg_positive,not rational,rational,irrational,person,crazy,David,male,1,5241c2fe9605cc466afffb02a089f055
four_sliders,morphant,the most irrational<br>person in the world,the most rational<br>person in the world,0.11,9,15387,4,morphant,irrational,rational,irrational,person,crazy,Anthony,male,1,5241c2fe9605cc466afffb02a089f055
four_sliders,morphant,the most unresourceful<br>person in the world,the most resourceful<br>person in the world,0.74,10,22781,1,neg_neg_positive,not not resourceful,resourceful,unresourceful,person,wasteful,John,male,1,5241c2fe9605cc466afffb02a089f055
four_sliders,morphant,the most unresourceful<br>person in the world,the most resourceful<br>person in the world,0.27,10,22781,2,morphant,unresourceful,resourceful,unresourceful,person,wasteful,Amber,female,1,5241c2fe9605cc466afffb02a089f055
four_sliders,morphant,the most unresourceful<br>person in the world,the most resourceful<br>person in the world,0.23,10,22781,3,neg_positive,not resourceful,resourceful,unresourceful,person,wasteful,Sasha,female,1,5241c2fe9605cc466afffb02a089f055
four_sliders,morphant,the most unresourceful<br>person in the world,the most resourceful<br>person in the world,0.79,10,22781,4,positive,resourceful,resourceful,unresourceful,person,wasteful,Cameron,male,1,5241c2fe9605cc466afffb02a089f055
four_sliders,morphant,the most unreliable<br>person in the world,the most reliable<br>person in the world,0.7,11,12602,1,neg_neg_positive,not not reliable,reliable,unreliable,person,flaky,Alicia,female,1,5241c2fe9605cc466afffb02a089f055
four_sliders,morphant,the most unreliable<br>person in the world,the most reliable<br>person in the world,0.79,11,12602,2,positive,reliable,reliable,unreliable,person,flaky,Lee,male,1,5241c2fe9605cc466afffb02a089f055
four_sliders,morphant,the most unreliable<br>person in the world,the most reliable<br>person in the world,0.26,11,12602,3,neg_positive,not reliable,reliable,unreliable,person,flaky,Eric,male,1,5241c2fe9605cc466afffb02a089f055
four_sliders,morphant,the most unreliable<br>person in the world,the most reliable<br>person in the world,0.15,11,12602,4,morphant,unreliable,reliable,unreliable,person,flaky,Tom,male,1,5241c2fe9605cc466afffb02a089f055
four_sliders,morphant,the most intolerant<br>person in the world,the most tolerant<br>person in the world,0.79,12,11422,1,positive,tolerant,tolerant,intolerant,person,bigoted,Angela,female,1,5241c2fe9605cc466afffb02a089f055
four_sliders,morphant,the most intolerant<br>person in the world,the most tolerant<br>person in the world,0.71,12,11422,2,neg_neg_positive,not not tolerant,tolerant,intolerant,person,bigoted,Michael,male,1,5241c2fe9605cc466afffb02a089f055
four_sliders,morphant,the most intolerant<br>person in the world,the most tolerant<br>person in the world,0.28,12,11422,3,neg_positive,not tolerant,tolerant,intolerant,person,bigoted,Kim,female,1,5241c2fe9605cc466afffb02a089f055
four_sliders,morphant,the most intolerant<br>person in the world,the most tolerant<br>person in the world,0.14,12,11422,4,morphant,intolerant,tolerant,intolerant,person,bigoted,William,male,1,5241c2fe9605cc466afffb02a089f055
four_sliders,morphant,the most uninteresting<br>person in the world,the most interesting<br>person in the world,0.35,1,27779,1,neg_positive,not interesting,interesting,uninteresting,person,boring,Dylan,male,1,358d273699fb33216302c04af7b3c9ea
four_sliders,morphant,the most uninteresting<br>person in the world,the most interesting<br>person in the world,0.66,1,27779,2,positive,interesting,interesting,uninteresting,person,boring,Monica,female,1,358d273699fb33216302c04af7b3c9ea
four_sliders,morphant,the most uninteresting<br>person in the world,the most interesting<br>person in the world,0.37,1,27779,3,morphant,uninteresting,interesting,uninteresting,person,boring,David,male,1,358d273699fb33216302c04af7b3c9ea
four_sliders,morphant,the most uninteresting<br>person in the world,the most interesting<br>person in the world,0.38,1,27779,4,neg_neg_positive,not not interesting,interesting,uninteresting,person,boring,Stephanie,female,1,358d273699fb33216302c04af7b3c9ea
four_sliders,morphant,the most unreliable<br>person in the world,the most reliable<br>person in the world,0.66,2,22640,1,positive,reliable,reliable,unreliable,person,flaky,Angela,female,1,358d273699fb33216302c04af7b3c9ea
four_sliders,morphant,the most unreliable<br>person in the world,the most reliable<br>person in the world,0.36,2,22640,2,neg_positive,not reliable,reliable,unreliable,person,flaky,Noah,male,1,358d273699fb33216302c04af7b3c9ea
four_sliders,morphant,the most unreliable<br>person in the world,the most reliable<br>person in the world,0.31,2,22640,3,morphant,unreliable,reliable,unreliable,person,flaky,Tom,male,1,358d273699fb33216302c04af7b3c9ea
four_sliders,morphant,the most unreliable<br>person in the world,the most reliable<br>person in the world,0.16,2,22640,4,neg_neg_positive,not not reliable,reliable,unreliable,person,flaky,Emma,female,1,358d273699fb33216302c04af7b3c9ea
four_sliders,morphant,the most unkind<br>person in the world,the most kind<br>person in the world,0.31,3,13458,1,neg_positive,not kind,kind,unkind,person,cruel,Andrew,male,1,358d273699fb33216302c04af7b3c9ea
four_sliders,morphant,the most unkind<br>person in the world,the most kind<br>person in the world,0.31,3,13458,2,morphant,unkind,kind,unkind,person,cruel,Charles,male,1,358d273699fb33216302c04af7b3c9ea
four_sliders,morphant,the most unkind<br>person in the world,the most kind<br>person in the world,0.19,3,13458,3,neg_neg_positive,not not kind,kind,unkind,person,cruel,Brooke,female,1,358d273699fb33216302c04af7b3c9ea
four_sliders,morphant,the most unkind<br>person in the world,the most kind<br>person in the world,0.71,3,13458,4,positive,kind,kind,unkind,person,cruel,Jeremy,male,1,358d273699fb33216302c04af7b3c9ea
four_sliders,morphant,the most impolite<br>person in the world,the most polite<br>person in the world,0.69,4,9899,1,positive,polite,polite,impolite,person,rude,Jackie,female,1,358d273699fb33216302c04af7b3c9ea
four_sliders,morphant,the most impolite<br>person in the world,the most polite<br>person in the world,0.32,4,9899,2,morphant,impolite,polite,impolite,person,rude,Stephen,male,1,358d273699fb33216302c04af7b3c9ea
four_sliders,morphant,the most impolite<br>person in the world,the most polite<br>person in the world,0.27,4,9899,3,neg_positive,not polite,polite,impolite,person,rude,Mason,male,1,358d273699fb33216302c04af7b3c9ea
four_sliders,morphant,the most impolite<br>person in the world,the most polite<br>person in the world,0.13,4,9899,4,neg_neg_positive,not not polite,polite,impolite,person,rude,Samuel,male,1,358d273699fb33216302c04af7b3c9ea
four_sliders,morphant,the most intolerant<br>person in the world,the most tolerant<br>person in the world,0.66,5,14350,1,morphant,intolerant,tolerant,intolerant,person,bigoted,Nicole,female,1,358d273699fb33216302c04af7b3c9ea
four_sliders,morphant,the most intolerant<br>person in the world,the most tolerant<br>person in the world,0.18,5,14350,2,neg_neg_positive,not not tolerant,tolerant,intolerant,person,bigoted,Eric,male,1,358d273699fb33216302c04af7b3c9ea
four_sliders,morphant,the most intolerant<br>person in the world,the most tolerant<br>person in the world,0.25,5,14350,3,neg_positive,not tolerant,tolerant,intolerant,person,bigoted,Jennifer,female,1,358d273699fb33216302c04af7b3c9ea
four_sliders,morphant,the most intolerant<br>person in the world,the most tolerant<br>person in the world,0.7,5,14350,4,positive,tolerant,tolerant,intolerant,person,bigoted,Lucas,male,1,358d273699fb33216302c04af7b3c9ea
four_sliders,morphant,the most unforgiving<br>person in the world,the most forgiving<br>person in the world,0.3,6,13945,1,morphant,unforgiving,forgiving,unforgiving,person,resentful,Gabriel,male,1,358d273699fb33216302c04af7b3c9ea
four_sliders,morphant,the most unforgiving<br>person in the world,the most forgiving<br>person in the world,0.74,6,13945,2,positive,forgiving,forgiving,unforgiving,person,resentful,Maya,female,1,358d273699fb33216302c04af7b3c9ea
four_sliders,morphant,the most unforgiving<br>person in the world,the most forgiving<br>person in the world,0.12,6,13945,3,neg_neg_positive,not not forgiving,forgiving,unforgiving,person,resentful,Claire,female,1,358d273699fb33216302c04af7b3c9ea
four_sliders,morphant,the most unforgiving<br>person in the world,the most forgiving<br>person in the world,0.3,6,13945,4,neg_positive,not forgiving,forgiving,unforgiving,person,resentful,Melinda,female,1,358d273699fb33216302c04af7b3c9ea
four_sliders,morphant,the most irrational<br>person in the world,the most rational<br>person in the world,0.2,7,10297,1,neg_neg_positive,not not rational,rational,irrational,person,crazy,Kathleen,female,1,358d273699fb33216302c04af7b3c9ea
four_sliders,morphant,the most irrational<br>person in the world,the most rational<br>person in the world,0.68,7,10297,2,morphant,irrational,rational,irrational,person,crazy,Kim,female,1,358d273699fb33216302c04af7b3c9ea
four_sliders,morphant,the most irrational<br>person in the world,the most rational<br>person in the world,0.29,7,10297,3,neg_positive,not rational,rational,irrational,person,crazy,Greg,male,1,358d273699fb33216302c04af7b3c9ea
four_sliders,morphant,the most irrational<br>person in the world,the most rational<br>person in the world,0.76,7,10297,4,positive,rational,rational,irrational,person,crazy,Diana,female,1,358d273699fb33216302c04af7b3c9ea
four_sliders,morphant,the most immature<br>person in the world,the most mature<br>person in the world,0.2,8,12831,1,neg_neg_positive,not not mature,mature,immature,person,childish,Laura,female,1,358d273699fb33216302c04af7b3c9ea
four_sliders,morphant,the most immature<br>person in the world,the most mature<br>person in the world,0.7,8,12831,2,positive,mature,mature,immature,person,childish,Veronica,female,1,358d273699fb33216302c04af7b3c9ea
four_sliders,morphant,the most immature<br>person in the world,the most mature<br>person in the world,0.26,8,12831,3,neg_positive,not mature,mature,immature,person,childish,Michelle,female,1,358d273699fb33216302c04af7b3c9ea
four_sliders,morphant,the most immature<br>person in the world,the most mature<br>person in the world,0.19,8,12831,4,morphant,immature,mature,immature,person,childish,Cameron,male,1,358d273699fb33216302c04af7b3c9ea
four_sliders,morphant,the most unresourceful<br>person in the world,the most resourceful<br>person in the world,0.72,9,9305,1,positive,resourceful,resourceful,unresourceful,person,wasteful,Lee,male,1,358d273699fb33216302c04af7b3c9ea
four_sliders,morphant,the most unresourceful<br>person in the world,the most resourceful<br>person in the world,0.26,9,9305,2,neg_positive,not resourceful,resourceful,unresourceful,person,wasteful,Mia,female,1,358d273699fb33216302c04af7b3c9ea
four_sliders,morphant,the most unresourceful<br>person in the world,the most resourceful<br>person in the world,0.14,9,9305,3,neg_neg_positive,not not resourceful,resourceful,unresourceful,person,wasteful,Amber,female,1,358d273699fb33216302c04af7b3c9ea
four_sliders,morphant,the most unresourceful<br>person in the world,the most resourceful<br>person in the world,0.2,9,9305,4,morphant,unresourceful,resourceful,unresourceful,person,wasteful,William,male,1,358d273699fb33216302c04af7b3c9ea
four_sliders,morphant,the most unaffectionate<br>person in the world,the most affectionate<br>person in the world,0.24,10,14130,1,morphant,unaffectionate,affectionate,unaffectionate,person,cold,Alicia,female,1,358d273699fb33216302c04af7b3c9ea
four_sliders,morphant,the most unaffectionate<br>person in the world,the most affectionate<br>person in the world,0.11,10,14130,2,neg_neg_positive,not not affectionate,affectionate,unaffectionate,person,cold,Anthony,male,1,358d273699fb33216302c04af7b3c9ea
four_sliders,morphant,the most unaffectionate<br>person in the world,the most affectionate<br>person in the world,0.17,10,14130,3,neg_positive,not affectionate,affectionate,unaffectionate,person,cold,Sasha,female,1,358d273699fb33216302c04af7b3c9ea
four_sliders,morphant,the most unaffectionate<br>person in the world,the most affectionate<br>person in the world,0.68,10,14130,4,positive,affectionate,affectionate,unaffectionate,person,cold,Sophia,female,1,358d273699fb33216302c04af7b3c9ea
four_sliders,morphant,the most uneducated<br>person in the world,the most educated<br>person in the world,0.12,11,10150,1,neg_neg_positive,not not educated,educated,uneducated,person,ignorant,John,male,1,358d273699fb33216302c04af7b3c9ea
four_sliders,morphant,the most uneducated<br>person in the world,the most educated<br>person in the world,0.23,11,10150,2,neg_positive,not educated,educated,uneducated,person,ignorant,Julia,female,1,358d273699fb33216302c04af7b3c9ea
four_sliders,morphant,the most uneducated<br>person in the world,the most educated<br>person in the world,0.24,11,10150,3,morphant,uneducated,educated,uneducated,person,ignorant,Jacob,male,1,358d273699fb33216302c04af7b3c9ea
four_sliders,morphant,the most uneducated<br>person in the world,the most educated<br>person in the world,0.68,11,10150,4,positive,educated,educated,uneducated,person,ignorant,Daniel,male,1,358d273699fb33216302c04af7b3c9ea
four_sliders,morphant,the most unintelligent<br>person in the world,the most intelligent<br>person in the world,0.25,12,10127,1,neg_positive,not intelligent,intelligent,unintelligent,person,stupid,Alison,female,1,358d273699fb33216302c04af7b3c9ea
four_sliders,morphant,the most unintelligent<br>person in the world,the most intelligent<br>person in the world,0.24,12,10127,2,morphant,unintelligent,intelligent,unintelligent,person,stupid,Michael,male,1,358d273699fb33216302c04af7b3c9ea
four_sliders,morphant,the most unintelligent<br>person in the world,the most intelligent<br>person in the world,0.77,12,10127,3,positive,intelligent,intelligent,unintelligent,person,stupid,Liam,male,1,358d273699fb33216302c04af7b3c9ea
four_sliders,morphant,the most unintelligent<br>person in the world,the most intelligent<br>person in the world,0.13,12,10127,4,neg_neg_positive,not not intelligent,intelligent,unintelligent,person,stupid,Alexander,male,1,358d273699fb33216302c04af7b3c9ea
four_sliders,morphant,the most unaffectionate<br>person in the world,the most affectionate<br>person in the world,0.2,1,56003,1,morphant,unaffectionate,affectionate,unaffectionate,person,cold,Daniel,male,1,cec5155e05e0fece1ea35233e1b580c1
four_sliders,morphant,the most unaffectionate<br>person in the world,the most affectionate<br>person in the world,0.77,1,56003,2,positive,affectionate,affectionate,unaffectionate,person,cold,Eric,male,1,cec5155e05e0fece1ea35233e1b580c1
four_sliders,morphant,the most unaffectionate<br>person in the world,the most affectionate<br>person in the world,0.65,1,56003,3,neg_neg_positive,not not affectionate,affectionate,unaffectionate,person,cold,Nicole,female,1,cec5155e05e0fece1ea35233e1b580c1
four_sliders,morphant,the most unaffectionate<br>person in the world,the most affectionate<br>person in the world,0.2,1,56003,4,neg_positive,not affectionate,affectionate,unaffectionate,person,cold,Jackie,female,1,cec5155e05e0fece1ea35233e1b580c1
four_sliders,morphant,the most unambitious<br>person in the world,the most ambitious<br>person in the world,0.36,2,18464,1,neg_positive,not ambitious,ambitious,unambitious,person,lazy,Sasha,female,1,cec5155e05e0fece1ea35233e1b580c1
four_sliders,morphant,the most unambitious<br>person in the world,the most ambitious<br>person in the world,0.19,2,18464,2,morphant,unambitious,ambitious,unambitious,person,lazy,Noah,male,1,cec5155e05e0fece1ea35233e1b580c1
four_sliders,morphant,the most unambitious<br>person in the world,the most ambitious<br>person in the world,0.67,2,18464,3,neg_neg_positive,not not ambitious,ambitious,unambitious,person,lazy,Jacob,male,1,cec5155e05e0fece1ea35233e1b580c1
four_sliders,morphant,the most unambitious<br>person in the world,the most ambitious<br>person in the world,0.83,2,18464,4,positive,ambitious,ambitious,unambitious,person,lazy,Michelle,female,1,cec5155e05e0fece1ea35233e1b580c1
four_sliders,morphant,the most unintelligent<br>person in the world,the most intelligent<br>person in the world,0.79,3,12964,1,positive,intelligent,intelligent,unintelligent,person,stupid,Andrew,male,1,cec5155e05e0fece1ea35233e1b580c1
four_sliders,morphant,the most unintelligent<br>person in the world,the most intelligent<br>person in the world,0.11,3,12964,2,morphant,unintelligent,intelligent,unintelligent,person,stupid,Amber,female,1,cec5155e05e0fece1ea35233e1b580c1
four_sliders,morphant,the most unintelligent<br>person in the world,the most intelligent<br>person in the world,0.18,3,12964,3,neg_positive,not intelligent,intelligent,unintelligent,person,stupid,Melinda,female,1,cec5155e05e0fece1ea35233e1b580c1
four_sliders,morphant,the most unintelligent<br>person in the world,the most intelligent<br>person in the world,0.68,3,12964,4,neg_neg_positive,not not intelligent,intelligent,unintelligent,person,stupid,Greg,male,1,cec5155e05e0fece1ea35233e1b580c1
four_sliders,morphant,the most unforgiving<br>person in the world,the most forgiving<br>person in the world,0.68,4,11148,1,neg_neg_positive,not not forgiving,forgiving,unforgiving,person,resentful,Stephen,male,1,cec5155e05e0fece1ea35233e1b580c1
four_sliders,morphant,the most unforgiving<br>person in the world,the most forgiving<br>person in the world,0.86,4,11148,2,positive,forgiving,forgiving,unforgiving,person,resentful,Cameron,male,1,cec5155e05e0fece1ea35233e1b580c1
four_sliders,morphant,the most unforgiving<br>person in the world,the most forgiving<br>person in the world,0.12,4,11148,3,morphant,unforgiving,forgiving,unforgiving,person,resentful,Gabriel,male,1,cec5155e05e0fece1ea35233e1b580c1
four_sliders,morphant,the most unforgiving<br>person in the world,the most forgiving<br>person in the world,0.14,4,11148,4,neg_positive,not forgiving,forgiving,unforgiving,person,resentful,Jennifer,female,1,cec5155e05e0fece1ea35233e1b580c1
four_sliders,morphant,the most immature<br>person in the world,the most mature<br>person in the world,0.84,5,10569,1,positive,mature,mature,immature,person,childish,Tom,male,1,cec5155e05e0fece1ea35233e1b580c1
four_sliders,morphant,the most immature<br>person in the world,the most mature<br>person in the world,0.07,5,10569,2,morphant,immature,mature,immature,person,childish,Alicia,female,1,cec5155e05e0fece1ea35233e1b580c1
four_sliders,morphant,the most immature<br>person in the world,the most mature<br>person in the world,0.67,5,10569,3,neg_neg_positive,not not mature,mature,immature,person,childish,Stephanie,female,1,cec5155e05e0fece1ea35233e1b580c1
four_sliders,morphant,the most immature<br>person in the world,the most mature<br>person in the world,0.19,5,10569,4,neg_positive,not mature,mature,immature,person,childish,Claire,female,1,cec5155e05e0fece1ea35233e1b580c1
four_sliders,morphant,the most unkind<br>person in the world,the most kind<br>person in the world,0.15,6,9910,1,morphant,unkind,kind,unkind,person,cruel,Alison,female,1,cec5155e05e0fece1ea35233e1b580c1
four_sliders,morphant,the most unkind<br>person in the world,the most kind<br>person in the world,0.05,6,9910,2,neg_positive,not kind,kind,unkind,person,cruel,Julia,female,1,cec5155e05e0fece1ea35233e1b580c1
four_sliders,morphant,the most unkind<br>person in the world,the most kind<br>person in the world,0.87,6,9910,3,positive,kind,kind,unkind,person,cruel,Liam,male,1,cec5155e05e0fece1ea35233e1b580c1
four_sliders,morphant,the most unkind<br>person in the world,the most kind<br>person in the world,0.72,6,9910,4,neg_neg_positive,not not kind,kind,unkind,person,cruel,Charles,male,1,cec5155e05e0fece1ea35233e1b580c1
four_sliders,morphant,the most intolerant<br>person in the world,the most tolerant<br>person in the world,0.62,7,15137,1,neg_neg_positive,not not tolerant,tolerant,intolerant,person,bigoted,Angela,female,1,cec5155e05e0fece1ea35233e1b580c1
four_sliders,morphant,the most intolerant<br>person in the world,the most tolerant<br>person in the world,0.14,7,15137,2,neg_positive,not tolerant,tolerant,intolerant,person,bigoted,Dylan,male,1,cec5155e05e0fece1ea35233e1b580c1
four_sliders,morphant,the most intolerant<br>person in the world,the most tolerant<br>person in the world,0.05,7,15137,3,morphant,intolerant,tolerant,intolerant,person,bigoted,Kathleen,female,1,cec5155e05e0fece1ea35233e1b580c1
four_sliders,morphant,the most intolerant<br>person in the world,the most tolerant<br>person in the world,0.86,7,15137,4,positive,tolerant,tolerant,intolerant,person,bigoted,Emma,female,1,cec5155e05e0fece1ea35233e1b580c1
four_sliders,morphant,the most irrational<br>person in the world,the most rational<br>person in the world,0.13,8,9569,1,morphant,irrational,rational,irrational,person,crazy,Sophia,female,1,cec5155e05e0fece1ea35233e1b580c1
four_sliders,morphant,the most irrational<br>person in the world,the most rational<br>person in the world,0.6,8,9569,2,neg_neg_positive,not not rational,rational,irrational,person,crazy,Lee,male,1,cec5155e05e0fece1ea35233e1b580c1
four_sliders,morphant,the most irrational<br>person in the world,the most rational<br>person in the world,0.89,8,9569,3,positive,rational,rational,irrational,person,crazy,Jeremy,male,1,cec5155e05e0fece1ea35233e1b580c1
four_sliders,morphant,the most irrational<br>person in the world,the most rational<br>person in the world,0.18,8,9569,4,neg_positive,not rational,rational,irrational,person,crazy,Laura,female,1,cec5155e05e0fece1ea35233e1b580c1
four_sliders,morphant,the most unpatriotic<br>person in the world,the most patriotic<br>person in the world,0.58,9,11909,1,neg_neg_positive,not not patriotic,patriotic,unpatriotic,person,traitorous,Diana,female,1,cec5155e05e0fece1ea35233e1b580c1
four_sliders,morphant,the most unpatriotic<br>person in the world,the most patriotic<br>person in the world,0.82,9,11909,2,positive,patriotic,patriotic,unpatriotic,person,traitorous,John,male,1,cec5155e05e0fece1ea35233e1b580c1
four_sliders,morphant,the most unpatriotic<br>person in the world,the most patriotic<br>person in the world,0.06,9,11909,3,neg_positive,not patriotic,patriotic,unpatriotic,person,traitorous,Maya,female,1,cec5155e05e0fece1ea35233e1b580c1
four_sliders,morphant,the most unpatriotic<br>person in the world,the most patriotic<br>person in the world,0.07,9,11909,4,morphant,unpatriotic,patriotic,unpatriotic,person,traitorous,Monica,female,1,cec5155e05e0fece1ea35233e1b580c1
four_sliders,morphant,the most unfriendly<br>person in the world,the most friendly<br>person in the world,0.59,10,12685,1,neg_neg_positive,not not friendly,friendly,unfriendly,person,mean,Veronica,female,1,cec5155e05e0fece1ea35233e1b580c1
four_sliders,morphant,the most unfriendly<br>person in the world,the most friendly<br>person in the world,0.05,10,12685,2,neg_positive,not friendly,friendly,unfriendly,person,mean,Michael,male,1,cec5155e05e0fece1ea35233e1b580c1
four_sliders,morphant,the most unfriendly<br>person in the world,the most friendly<br>person in the world,0.15,10,12685,3,morphant,unfriendly,friendly,unfriendly,person,mean,Brooke,female,1,cec5155e05e0fece1ea35233e1b580c1
four_sliders,morphant,the most unfriendly<br>person in the world,the most friendly<br>person in the world,0.86,10,12685,4,positive,friendly,friendly,unfriendly,person,mean,Alexander,male,1,cec5155e05e0fece1ea35233e1b580c1
four_sliders,morphant,the most uninteresting<br>person in the world,the most interesting<br>person in the world,0.11,11,10256,1,neg_positive,not interesting,interesting,uninteresting,person,boring,Mason,male,1,cec5155e05e0fece1ea35233e1b580c1
four_sliders,morphant,the most uninteresting<br>person in the world,the most interesting<br>person in the world,0.81,11,10256,2,positive,interesting,interesting,uninteresting,person,boring,Mia,female,1,cec5155e05e0fece1ea35233e1b580c1
four_sliders,morphant,the most uninteresting<br>person in the world,the most interesting<br>person in the world,0.07,11,10256,3,morphant,uninteresting,interesting,uninteresting,person,boring,Kim,female,1,cec5155e05e0fece1ea35233e1b580c1
four_sliders,morphant,the most uninteresting<br>person in the world,the most interesting<br>person in the world,0.57,11,10256,4,neg_neg_positive,not not interesting,interesting,uninteresting,person,boring,William,male,1,cec5155e05e0fece1ea35233e1b580c1
four_sliders,morphant,the most dishonest<br>person in the world,the most honest<br>person in the world,0.03,12,15942,1,neg_positive,not honest,honest,dishonest,person,deceitful,Samuel,male,1,cec5155e05e0fece1ea35233e1b580c1
four_sliders,morphant,the most dishonest<br>person in the world,the most honest<br>person in the world,0.04,12,15942,2,morphant,dishonest,honest,dishonest,person,deceitful,Anthony,male,1,cec5155e05e0fece1ea35233e1b580c1
four_sliders,morphant,the most dishonest<br>person in the world,the most honest<br>person in the world,0.57,12,15942,3,neg_neg_positive,not not honest,honest,dishonest,person,deceitful,Lucas,male,1,cec5155e05e0fece1ea35233e1b580c1
four_sliders,morphant,the most dishonest<br>person in the world,the most honest<br>person in the world,0.89,12,15942,4,positive,honest,honest,dishonest,person,deceitful,David,male,1,cec5155e05e0fece1ea35233e1b580c1
four_sliders,morphant,the most unattractive<br>person in the world,the most attractive<br>person in the world,0.67,1,16619,1,neg_neg_positive,not not attractive,attractive,unattractive,person,ugly,Nicole,female,1,5fef6bbd66bd8c097ccd1fb04e66214e
four_sliders,morphant,the most unattractive<br>person in the world,the most attractive<br>person in the world,0.15,1,16619,2,morphant,unattractive,attractive,unattractive,person,ugly,Daniel,male,1,5fef6bbd66bd8c097ccd1fb04e66214e
four_sliders,morphant,the most unattractive<br>person in the world,the most attractive<br>person in the world,0.16,1,16619,3,neg_positive,not attractive,attractive,unattractive,person,ugly,Noah,male,1,5fef6bbd66bd8c097ccd1fb04e66214e
four_sliders,morphant,the most unattractive<br>person in the world,the most attractive<br>person in the world,0.92,1,16619,4,positive,attractive,attractive,unattractive,person,ugly,Anthony,male,1,5fef6bbd66bd8c097ccd1fb04e66214e
