trial_type,antonym_type,endpoint_low,endpoint_high,response,trial_num,rt,slider_position,adjective_type,adjective,positive,morphant,referent,lexant,name,gender,exptid,workerid,n_correct,language,englishNative,meanRating,sdRating,normalizedResponse,adjective_type_rescaled,presentation_num,splitHalf
four_sliders,morphant,the most unaffectionate<br>person in the world,the most affectionate<br>person in the world,0.85,1,38500,1,positive,affectionate,affectionate,unaffectionate,person,cold,Mason,male,NA,1a3d63a540c5d1a40171fbe4f511838c,10,English,TRUE,0.45825,0.29625774900608737,1.3223282810805077,positive,1,first
four_sliders,morphant,the most unaffectionate<br>person in the world,the most affectionate<br>person in the world,0.14,1,38500,2,morphant,unaffectionate,affectionate,unaffectionate,person,cold,Brooke,female,NA,1a3d63a540c5d1a40171fbe4f511838c,10,English,TRUE,0.45825,0.29625774900608737,-1.074233504668466,antonym,1,first
four_sliders,morphant,the most unaffectionate<br>person in the world,the most affectionate<br>person in the world,0.57,1,38500,3,neg_neg_positive,not not affectionate,affectionate,unaffectionate,person,cold,Liam,male,NA,1a3d63a540c5d1a40171fbe4f511838c,10,English,TRUE,0.45825,0.29625774900608737,0.3772053233203489,neg_neg_positive,1,first
four_sliders,morphant,the most unaffectionate<br>person in the world,the most affectionate<br>person in the world,0.57,1,38500,4,neg_morphant,not unaffectionate,affectionate,unaffectionate,person,cold,Monica,female,NA,1a3d63a540c5d1a40171fbe4f511838c,10,English,TRUE,0.45825,0.29625774900608737,0.3772053233203489,neg_antonym,1,first
four_sliders,morphant,the most unaffectionate<br>person in the world,the most affectionate<br>person in the world,0.12,1,38500,5,neg_positive,not affectionate,affectionate,unaffectionate,person,cold,Gabriel,male,NA,1a3d63a540c5d1a40171fbe4f511838c,10,English,TRUE,0.45825,0.29625774900608737,-1.1417422873656202,neg_positive,1,first
four_sliders,morphant,the most immature<br>person in the world,the most mature<br>person in the world,0.87,1,68353,1,positive,mature,mature,immature,person,childish,Lucas,male,NA,495e666beca342982532fcb8be98055a,9,English,TRUE,0.4565,0.34631059129201586,1.1940148825865067,positive,1,first
four_sliders,morphant,the most immature<br>person in the world,the most mature<br>person in the world,0.07,1,68353,2,morphant,immature,mature,immature,person,childish,Stephen,male,NA,495e666beca342982532fcb8be98055a,9,English,TRUE,0.4565,0.34631059129201586,-1.1160501865046792,antonym,1,first
four_sliders,morphant,the most immature<br>person in the world,the most mature<br>person in the world,0.34,1,68353,3,neg_positive,not mature,mature,immature,person,childish,Jackie,female,NA,495e666beca342982532fcb8be98055a,9,English,TRUE,0.4565,0.34631059129201586,-0.3364032256864039,neg_positive,1,first
four_sliders,morphant,the most immature<br>person in the world,the most mature<br>person in the world,0.29,1,68353,4,neg_neg_positive,not not mature,mature,immature,person,childish,Alicia,female,NA,495e666beca342982532fcb8be98055a,9,English,TRUE,0.4565,0.34631059129201586,-0.48078229250460314,neg_neg_positive,1,first
four_sliders,morphant,the most immature<br>person in the world,the most mature<br>person in the world,0.1,1,68353,5,neg_morphant,not immature,mature,immature,person,childish,Diana,female,NA,495e666beca342982532fcb8be98055a,9,English,TRUE,0.4565,0.34631059129201586,-1.0294227464137597,neg_antonym,1,first
four_sliders,morphant,the most dishonest<br>person in the world,the most honest<br>person in the world,0.25,1,28526,1,neg_positive,not honest,honest,dishonest,person,deceitful,Angela,female,NA,4d12f3a971d5f4e8c09b506a3fc46c07,10,english,TRUE,0.54875,0.28466973666752665,-1.0494617499468095,neg_positive,1,first
four_sliders,morphant,the most dishonest<br>person in the world,the most honest<br>person in the world,0.79,1,28526,2,positive,honest,honest,dishonest,person,deceitful,Lucas,male,NA,4d12f3a971d5f4e8c09b506a3fc46c07,10,english,TRUE,0.54875,0.28466973666752665,0.8474732959821519,positive,1,first
four_sliders,morphant,the most dishonest<br>person in the world,the most honest<br>person in the world,0.76,1,28526,3,neg_neg_positive,not not honest,honest,dishonest,person,deceitful,Melinda,female,NA,4d12f3a971d5f4e8c09b506a3fc46c07,10,english,TRUE,0.54875,0.28466973666752665,0.7420880156527652,neg_neg_positive,1,first
four_sliders,morphant,the most dishonest<br>person in the world,the most honest<br>person in the world,0.2,1,28526,4,morphant,dishonest,honest,dishonest,person,deceitful,Jennifer,female,NA,4d12f3a971d5f4e8c09b506a3fc46c07,10,english,TRUE,0.54875,0.28466973666752665,-1.2251038838291206,antonym,1,first
four_sliders,morphant,the most dishonest<br>person in the world,the most honest<br>person in the world,0.78,1,28526,5,neg_morphant,not dishonest,honest,dishonest,person,deceitful,Kim,female,NA,4d12f3a971d5f4e8c09b506a3fc46c07,10,english,TRUE,0.54875,0.28466973666752665,0.8123448692056897,neg_antonym,1,first
four_sliders,morphant,the most ungenerous<br>person in the world,the most generous<br>person in the world,0.61,1,24927,1,neg_morphant,not ungenerous,generous,ungenerous,person,stingy,Emma,female,NA,cfd5adac125eaf5d7105b4c6688e7965,8,English,TRUE,0.5845,0.16647091067980643,0.15317991531293532,neg_antonym,1,first
four_sliders,morphant,the most ungenerous<br>person in the world,the most generous<br>person in the world,0.5,1,24927,2,positive,generous,generous,ungenerous,person,stingy,Lee,male,NA,cfd5adac125eaf5d7105b4c6688e7965,8,English,TRUE,0.5845,0.16647091067980643,-0.507596189958551,positive,1,first
four_sliders,morphant,the most ungenerous<br>person in the world,the most generous<br>person in the world,0.85,1,24927,3,neg_positive,not generous,generous,ungenerous,person,stingy,Kathleen,female,NA,cfd5adac125eaf5d7105b4c6688e7965,8,English,TRUE,0.5845,0.16647091067980643,1.5948732359052693,neg_positive,1,first
four_sliders,morphant,the most ungenerous<br>person in the world,the most generous<br>person in the world,0.35,1,24927,4,morphant,ungenerous,generous,ungenerous,person,stingy,Mia,female,NA,cfd5adac125eaf5d7105b4c6688e7965,8,English,TRUE,0.5845,0.16647091067980643,-1.4086545153287602,antonym,1,first
four_sliders,morphant,the most ungenerous<br>person in the world,the most generous<br>person in the world,0.63,1,24927,5,neg_neg_positive,not not generous,generous,ungenerous,person,stingy,Alexander,male,NA,cfd5adac125eaf5d7105b4c6688e7965,8,English,TRUE,0.5845,0.16647091067980643,0.2733210253622966,neg_neg_positive,1,first
four_sliders,morphant,the most unresourceful<br>person in the world,the most resourceful<br>person in the world,0.59,1,41774,1,positive,resourceful,resourceful,unresourceful,person,wasteful,Daniel,male,NA,64cde64385e29419acd0332fa9d00fd2,8,English,TRUE,0.508,0.08777009595294827,0.9342589763597668,positive,1,first
four_sliders,morphant,the most unresourceful<br>person in the world,the most resourceful<br>person in the world,0.42,1,41774,2,morphant,unresourceful,resourceful,unresourceful,person,wasteful,Mia,female,NA,64cde64385e29419acd0332fa9d00fd2,8,English,TRUE,0.508,0.08777009595294827,-1.0026193892641406,antonym,1,first
four_sliders,morphant,the most unresourceful<br>person in the world,the most resourceful<br>person in the world,0.39,1,41774,3,neg_positive,not resourceful,resourceful,unresourceful,person,wasteful,Sophia,female,NA,64cde64385e29419acd0332fa9d00fd2,8,English,TRUE,0.508,0.08777009595294827,-1.3444214537860064,neg_positive,1,first
four_sliders,morphant,the most unresourceful<br>person in the world,the most resourceful<br>person in the world,0.52,1,41774,4,neg_neg_positive,not not resourceful,resourceful,unresourceful,person,wasteful,Alicia,female,NA,64cde64385e29419acd0332fa9d00fd2,8,English,TRUE,0.508,0.08777009595294827,0.13672082580874656,neg_neg_positive,1,first
four_sliders,morphant,the most unresourceful<br>person in the world,the most resourceful<br>person in the world,0.56,1,41774,5,neg_morphant,not unresourceful,resourceful,unresourceful,person,wasteful,Greg,male,NA,64cde64385e29419acd0332fa9d00fd2,8,English,TRUE,0.508,0.08777009595294827,0.5924569118379017,neg_antonym,1,first
four_sliders,morphant,the most unkind<br>person in the world,the most kind<br>person in the world,0.32,1,113168,1,neg_neg_positive,not not kind,kind,unkind,person,cruel,Jackie,female,NA,ddd51b66bf66fe2828c8a86d59403c49,10,English,TRUE,0.45425,0.33397288005972076,-0.4019787474240229,neg_neg_positive,1,first
four_sliders,morphant,the most unkind<br>person in the world,the most kind<br>person in the world,0.08,1,113168,2,morphant,unkind,kind,unkind,person,cruel,Michael,male,NA,ddd51b66bf66fe2828c8a86d59403c49,10,English,TRUE,0.45425,0.33397288005972076,-1.1205999718692035,antonym,1,first
four_sliders,morphant,the most unkind<br>person in the world,the most kind<br>person in the world,0.94,1,113168,3,positive,kind,kind,unkind,person,cruel,Brooke,female,NA,ddd51b66bf66fe2828c8a86d59403c49,10,English,TRUE,0.45425,0.33397288005972076,1.454459415726027,positive,1,first
four_sliders,morphant,the most unkind<br>person in the world,the most kind<br>person in the world,0.79,1,113168,4,neg_morphant,not unkind,kind,unkind,person,cruel,Kim,female,NA,ddd51b66bf66fe2828c8a86d59403c49,10,English,TRUE,0.45425,0.33397288005972076,1.0053211504477895,neg_antonym,1,first
four_sliders,morphant,the most unkind<br>person in the world,the most kind<br>person in the world,0.14,1,113168,5,neg_positive,not kind,kind,unkind,person,cruel,Diana,female,NA,ddd51b66bf66fe2828c8a86d59403c49,10,English,TRUE,0.45425,0.33397288005972076,-0.9409446657579084,neg_positive,1,first
four_sliders,morphant,the most ungenerous<br>person in the world,the most generous<br>person in the world,0.21,1,11596,1,neg_neg_positive,not not generous,generous,ungenerous,person,stingy,Claire,female,NA,d0f133c5ca6fb4aaba09109030e15d39,7,english,TRUE,0.3585,0.10516287733430828,-1.4120952541829457,neg_neg_positive,1,first
four_sliders,morphant,the most ungenerous<br>person in the world,the most generous<br>person in the world,0.35,1,11596,2,morphant,ungenerous,generous,ungenerous,person,stingy,Veronica,female,NA,d0f133c5ca6fb4aaba09109030e15d39,7,english,TRUE,0.3585,0.10516287733430828,-0.0808270010811788,antonym,1,first
four_sliders,morphant,the most ungenerous<br>person in the world,the most generous<br>person in the world,0.5,1,11596,3,positive,generous,generous,ungenerous,person,stingy,David,male,NA,d0f133c5ca6fb4aaba09109030e15d39,7,english,TRUE,0.3585,0.10516287733430828,1.3455318415278577,positive,1,first
four_sliders,morphant,the most ungenerous<br>person in the world,the most generous<br>person in the world,0.39,1,11596,4,neg_morphant,not ungenerous,generous,ungenerous,person,stingy,Lucas,male,NA,d0f133c5ca6fb4aaba09109030e15d39,7,english,TRUE,0.3585,0.10516287733430828,0.29953535694789785,neg_antonym,1,first
four_sliders,morphant,the most ungenerous<br>person in the world,the most generous<br>person in the world,0.5,1,11596,5,neg_positive,not generous,generous,ungenerous,person,stingy,Tom,male,NA,d0f133c5ca6fb4aaba09109030e15d39,7,english,TRUE,0.3585,0.10516287733430828,1.3455318415278577,neg_positive,1,first
four_sliders,morphant,the most unpatriotic<br>person in the world,the most patriotic<br>person in the world,0.23,1,56529,1,neg_neg_positive,not not patriotic,patriotic,unpatriotic,person,traitorous,Veronica,female,NA,ce666cbe476651fafc4bc0503ad627aa,10,ENGLISH,TRUE,0.5265,0.4237352221158143,-0.699729417157022,neg_neg_positive,1,first
four_sliders,morphant,the most unpatriotic<br>person in the world,the most patriotic<br>person in the world,0.89,1,56529,2,positive,patriotic,patriotic,unpatriotic,person,traitorous,Angela,female,NA,ce666cbe476651fafc4bc0503ad627aa,10,ENGLISH,TRUE,0.5265,0.4237352221158143,0.857847025755742,positive,1,first
four_sliders,morphant,the most unpatriotic<br>person in the world,the most patriotic<br>person in the world,0.23,1,56529,3,neg_morphant,not unpatriotic,patriotic,unpatriotic,person,traitorous,Alison,female,NA,ce666cbe476651fafc4bc0503ad627aa,10,ENGLISH,TRUE,0.5265,0.4237352221158143,-0.699729417157022,neg_antonym,1,first
four_sliders,morphant,the most unpatriotic<br>person in the world,the most patriotic<br>person in the world,0.23,1,56529,4,morphant,unpatriotic,patriotic,unpatriotic,person,traitorous,Anthony,male,NA,ce666cbe476651fafc4bc0503ad627aa,10,ENGLISH,TRUE,0.5265,0.4237352221158143,-0.699729417157022,antonym,1,first
four_sliders,morphant,the most unpatriotic<br>person in the world,the most patriotic<br>person in the world,0.23,1,56529,5,neg_positive,not patriotic,patriotic,unpatriotic,person,traitorous,Greg,male,NA,ce666cbe476651fafc4bc0503ad627aa,10,ENGLISH,TRUE,0.5265,0.4237352221158143,-0.699729417157022,neg_positive,1,first
four_sliders,morphant,the most insincere<br>person in the world,the most sincere<br>person in the world,0.32,1,92867,1,neg_morphant,not insincere,sincere,insincere,person,fake,Alicia,female,NA,04988b31e4d50881ec1e06096bf67884,7,English,TRUE,0.54825,0.12046677379984734,-1.8947133122302413,neg_antonym,1,first
four_sliders,morphant,the most insincere<br>person in the world,the most sincere<br>person in the world,0.25,1,92867,2,morphant,insincere,sincere,insincere,person,fake,Claire,female,NA,04988b31e4d50881ec1e06096bf67884,7,English,TRUE,0.54825,0.12046677379984734,-2.4757863981277963,antonym,1,first
four_sliders,morphant,the most insincere<br>person in the world,the most sincere<br>person in the world,0.49,1,92867,3,neg_positive,not sincere,sincere,insincere,person,fake,John,male,NA,04988b31e4d50881ec1e06096bf67884,7,English,TRUE,0.54825,0.12046677379984734,-0.4835358179076083,neg_positive,1,first
four_sliders,morphant,the most insincere<br>person in the world,the most sincere<br>person in the world,0.64,1,92867,4,positive,sincere,sincere,insincere,person,fake,Alison,female,NA,04988b31e4d50881ec1e06096bf67884,7,English,TRUE,0.54825,0.12046677379984734,0.7616207947300093,positive,1,first
four_sliders,morphant,the most insincere<br>person in the world,the most sincere<br>person in the world,0.5,1,92867,5,neg_neg_positive,not not sincere,sincere,insincere,person,fake,Diana,female,NA,04988b31e4d50881ec1e06096bf67884,7,English,TRUE,0.54825,0.12046677379984734,-0.4005253770651004,neg_neg_positive,1,first
four_sliders,morphant,the most unambitious<br>person in the world,the most ambitious<br>person in the world,0.98,1,264125,1,neg_morphant,not unambitious,ambitious,unambitious,person,lazy,Mia,female,NA,c9df6c176e926e25f7531845919f8f0e,9,ENGLISH,TRUE,0.39,0.44730532221520825,1.3190095684042369,neg_antonym,1,first
four_sliders,morphant,the most unambitious<br>person in the world,the most ambitious<br>person in the world,0.05,1,264125,2,morphant,unambitious,ambitious,unambitious,person,lazy,Sasha,female,NA,c9df6c176e926e25f7531845919f8f0e,9,ENGLISH,TRUE,0.39,0.44730532221520825,-0.7601072089109163,antonym,1,first
four_sliders,morphant,the most unambitious<br>person in the world,the most ambitious<br>person in the world,0.06,1,264125,3,neg_positive,not ambitious,ambitious,unambitious,person,lazy,Kathleen,female,NA,c9df6c176e926e25f7531845919f8f0e,9,ENGLISH,TRUE,0.39,0.44730532221520825,-0.7377511145311835,neg_positive,1,first
four_sliders,morphant,the most unambitious<br>person in the world,the most ambitious<br>person in the world,0.06,1,264125,4,neg_neg_positive,not not ambitious,ambitious,unambitious,person,lazy,Lucas,male,NA,c9df6c176e926e25f7531845919f8f0e,9,ENGLISH,TRUE,0.39,0.44730532221520825,-0.7377511145311835,neg_neg_positive,1,first
four_sliders,morphant,the most unambitious<br>person in the world,the most ambitious<br>person in the world,0.98,1,264125,5,positive,ambitious,ambitious,unambitious,person,lazy,Jackie,female,NA,c9df6c176e926e25f7531845919f8f0e,9,ENGLISH,TRUE,0.39,0.44730532221520825,1.3190095684042369,positive,1,first
four_sliders,morphant,the most unresourceful<br>person in the world,the most resourceful<br>person in the world,0.63,1,55517,1,neg_neg_positive,not not resourceful,resourceful,unresourceful,person,wasteful,Jeremy,male,NA,4aadb85109fc687a34c1a38407d57b8c,9,English,TRUE,0.454,0.21763059739631493,0.8087098142707214,neg_neg_positive,1,first
four_sliders,morphant,the most unresourceful<br>person in the world,the most resourceful<br>person in the world,0.21,1,55517,2,morphant,unresourceful,resourceful,unresourceful,person,wasteful,Dylan,male,NA,4aadb85109fc687a34c1a38407d57b8c,9,English,TRUE,0.454,0.21763059739631493,-1.1211658788753185,antonym,1,first
four_sliders,morphant,the most unresourceful<br>person in the world,the most resourceful<br>person in the world,0.77,1,55517,3,positive,resourceful,resourceful,unresourceful,person,wasteful,Emma,female,NA,4aadb85109fc687a34c1a38407d57b8c,9,English,TRUE,0.454,0.21763059739631493,1.452001711986068,positive,1,first
four_sliders,morphant,the most unresourceful<br>person in the world,the most resourceful<br>person in the world,0.59,1,55517,4,neg_morphant,not unresourceful,resourceful,unresourceful,person,wasteful,Kim,female,NA,4aadb85109fc687a34c1a38407d57b8c,9,English,TRUE,0.454,0.21763059739631493,0.6249121292091936,neg_antonym,1,first
four_sliders,morphant,the most unresourceful<br>person in the world,the most resourceful<br>person in the world,0.32,1,55517,5,neg_positive,not resourceful,resourceful,unresourceful,person,wasteful,Sophia,female,NA,4aadb85109fc687a34c1a38407d57b8c,9,English,TRUE,0.454,0.21763059739631493,-0.6157222449561175,neg_positive,1,first
four_sliders,morphant,the most unaffectionate<br>person in the world,the most affectionate<br>person in the world,0.17,1,72347,1,neg_morphant,not unaffectionate,affectionate,unaffectionate,person,cold,Alison,female,NA,6435756c61d829b05d6ec7b6d5dbdbaf,10,English,TRUE,0.513,0.2791029586702039,-1.2289371694024163,neg_antonym,1,first
four_sliders,morphant,the most unaffectionate<br>person in the world,the most affectionate<br>person in the world,0.17,1,72347,2,morphant,unaffectionate,affectionate,unaffectionate,person,cold,Eric,male,NA,6435756c61d829b05d6ec7b6d5dbdbaf,10,English,TRUE,0.513,0.2791029586702039,-1.2289371694024163,antonym,1,first
four_sliders,morphant,the most unaffectionate<br>person in the world,the most affectionate<br>person in the world,0.73,1,72347,3,positive,affectionate,affectionate,unaffectionate,person,cold,Samuel,male,NA,6435756c61d829b05d6ec7b6d5dbdbaf,10,English,TRUE,0.513,0.2791029586702039,0.777490862274998,positive,1,first
four_sliders,morphant,the most unaffectionate<br>person in the world,the most affectionate<br>person in the world,0.7,1,72347,4,neg_neg_positive,not not affectionate,affectionate,unaffectionate,person,cold,Michael,male,NA,6435756c61d829b05d6ec7b6d5dbdbaf,10,English,TRUE,0.513,0.2791029586702039,0.6700036462922793,neg_neg_positive,1,first
four_sliders,morphant,the most unaffectionate<br>person in the world,the most affectionate<br>person in the world,0.31,1,72347,5,neg_positive,not affectionate,affectionate,unaffectionate,person,cold,Michelle,female,NA,6435756c61d829b05d6ec7b6d5dbdbaf,10,English,TRUE,0.513,0.2791029586702039,-0.7273301614830628,neg_positive,1,first
four_sliders,morphant,the most uneducated<br>person in the world,the most educated<br>person in the world,0.25,1,63752,1,neg_morphant,not uneducated,educated,uneducated,person,ignorant,Veronica,female,NA,5de9976c6f386ee69830d2bf68ab157a,9,English,TRUE,0.419,0.31595845231571756,-0.5348804526714444,neg_antonym,1,first
four_sliders,morphant,the most uneducated<br>person in the world,the most educated<br>person in the world,0.74,1,63752,2,positive,educated,educated,uneducated,person,ignorant,Michelle,female,NA,5de9976c6f386ee69830d2bf68ab157a,9,English,TRUE,0.419,0.31595845231571756,1.0159563627664714,positive,1,first
four_sliders,morphant,the most uneducated<br>person in the world,the most educated<br>person in the world,0.21,1,63752,3,morphant,uneducated,educated,uneducated,person,ignorant,Angela,female,NA,5de9976c6f386ee69830d2bf68ab157a,9,English,TRUE,0.419,0.31595845231571756,-0.661479376380662,antonym,1,first
four_sliders,morphant,the most uneducated<br>person in the world,the most educated<br>person in the world,0.14,1,63752,4,neg_positive,not educated,educated,uneducated,person,ignorant,Sasha,female,NA,5de9976c6f386ee69830d2bf68ab157a,9,English,TRUE,0.419,0.31595845231571756,-0.8830274928717928,neg_positive,1,first
four_sliders,morphant,the most uneducated<br>person in the world,the most educated<br>person in the world,0.33,1,63752,5,neg_neg_positive,not not educated,educated,uneducated,person,ignorant,Charles,male,NA,5de9976c6f386ee69830d2bf68ab157a,9,English,TRUE,0.419,0.31595845231571756,-0.2816826052530091,neg_neg_positive,1,first
four_sliders,morphant,the most uneducated<br>person in the world,the most educated<br>person in the world,0.28,1,8832,1,positive,educated,educated,uneducated,person,ignorant,John,male,NA,09adb547b3364c927160ce7277a18da0,8,english,TRUE,0.3785,0.09952579874276123,-0.9896931372998816,positive,1,first
four_sliders,morphant,the most uneducated<br>person in the world,the most educated<br>person in the world,0.36,1,8832,2,neg_morphant,not uneducated,educated,uneducated,person,ignorant,Greg,male,NA,09adb547b3364c927160ce7277a18da0,8,english,TRUE,0.3785,0.09952579874276123,-0.18588145218322671,neg_antonym,1,first
four_sliders,morphant,the most uneducated<br>person in the world,the most educated<br>person in the world,0.31,1,8832,3,neg_positive,not educated,educated,uneducated,person,ignorant,Laura,female,NA,09adb547b3364c927160ce7277a18da0,8,english,TRUE,0.3785,0.09952579874276123,-0.6882637553811362,neg_positive,1,first
four_sliders,morphant,the most uneducated<br>person in the world,the most educated<br>person in the world,0.42,1,8832,4,neg_neg_positive,not not educated,educated,uneducated,person,ignorant,Andrew,male,NA,09adb547b3364c927160ce7277a18da0,8,english,TRUE,0.3785,0.09952579874276123,0.41697731165426477,neg_neg_positive,1,first
four_sliders,morphant,the most uneducated<br>person in the world,the most educated<br>person in the world,0.35,1,8832,5,morphant,uneducated,educated,uneducated,person,ignorant,Kim,female,NA,09adb547b3364c927160ce7277a18da0,8,english,TRUE,0.3785,0.09952579874276123,-0.2863579128228087,antonym,1,first
four_sliders,morphant,the most impolite<br>person in the world,the most polite<br>person in the world,0,1,42027,1,morphant,impolite,polite,impolite,person,rude,Gabriel,male,NA,1847216991273f0e415fa659930ab8b1,7,English,TRUE,0.50625,0.38425210407645066,-1.3174944122082846,antonym,1,first
four_sliders,morphant,the most impolite<br>person in the world,the most polite<br>person in the world,0.52,1,42027,2,neg_neg_positive,not not polite,polite,impolite,person,rude,Liam,male,NA,1847216991273f0e415fa659930ab8b1,7,English,TRUE,0.50625,0.38425210407645066,0.03578379885010166,neg_neg_positive,1,first
four_sliders,morphant,the most impolite<br>person in the world,the most polite<br>person in the world,0.29,1,42027,3,neg_positive,not polite,polite,impolite,person,rude,Stephen,male,NA,1847216991273f0e415fa659930ab8b1,7,English,TRUE,0.50625,0.38425210407645066,-0.5627815637334155,neg_positive,1,first
four_sliders,morphant,the most impolite<br>person in the world,the most polite<br>person in the world,0.96,1,42027,4,positive,polite,polite,impolite,person,rude,Michael,male,NA,1847216991273f0e415fa659930ab8b1,7,English,TRUE,0.50625,0.38425210407645066,1.1808653620533514,positive,1,first
four_sliders,morphant,the most impolite<br>person in the world,the most polite<br>person in the world,0.71,1,42027,5,neg_morphant,not impolite,polite,impolite,person,rude,Lee,male,NA,1847216991273f0e415fa659930ab8b1,7,English,TRUE,0.50625,0.38425210407645066,0.5302508375060504,neg_antonym,1,first
four_sliders,morphant,the most unattractive<br>person in the world,the most attractive<br>person in the world,0.63,1,75168,1,neg_morphant,not unattractive,attractive,unattractive,person,ugly,Michelle,female,NA,bff1bf326a27627672e08aa22ec1fb20,10,English,TRUE,0.44,0.2647592036123313,0.71763322070648,neg_antonym,1,first
four_sliders,morphant,the most unattractive<br>person in the world,the most attractive<br>person in the world,0.18,1,75168,2,morphant,unattractive,attractive,unattractive,person,ugly,Alexander,male,NA,bff1bf326a27627672e08aa22ec1fb20,10,English,TRUE,0.44,0.2647592036123313,-0.9820244072825515,antonym,1,first
four_sliders,morphant,the most unattractive<br>person in the world,the most attractive<br>person in the world,0.83,1,75168,3,positive,attractive,attractive,unattractive,person,ugly,Mia,female,NA,bff1bf326a27627672e08aa22ec1fb20,10,English,TRUE,0.44,0.2647592036123313,1.473036610923827,positive,1,first
four_sliders,morphant,the most unattractive<br>person in the world,the most attractive<br>person in the world,0.44,1,75168,4,neg_positive,not attractive,attractive,unattractive,person,ugly,Nicole,female,NA,bff1bf326a27627672e08aa22ec1fb20,10,English,TRUE,0.44,0.2647592036123313,0,neg_positive,1,first
four_sliders,morphant,the most unattractive<br>person in the world,the most attractive<br>person in the world,0.04,1,75168,5,neg_neg_positive,not not attractive,attractive,unattractive,person,ugly,Maya,female,NA,bff1bf326a27627672e08aa22ec1fb20,10,English,TRUE,0.44,0.2647592036123313,-1.5108067804346947,neg_neg_positive,1,first
four_sliders,morphant,the most dishonest<br>person in the world,the most honest<br>person in the world,0.8,1,48166,1,neg_neg_positive,not not honest,honest,dishonest,person,deceitful,Gabriel,male,NA,f00419d672bfcb6c889dd10f5cf3b137,10,English,TRUE,0.565,0.3328817453845381,0.7059564042135533,neg_neg_positive,1,first
four_sliders,morphant,the most dishonest<br>person in the world,the most honest<br>person in the world,0.88,1,48166,2,neg_morphant,not dishonest,honest,dishonest,person,deceitful,Lee,male,NA,f00419d672bfcb6c889dd10f5cf3b137,10,English,TRUE,0.565,0.3328817453845381,0.9462819886266777,neg_antonym,1,first
four_sliders,morphant,the most dishonest<br>person in the world,the most honest<br>person in the world,0.96,1,48166,3,positive,honest,honest,dishonest,person,deceitful,Jennifer,female,NA,f00419d672bfcb6c889dd10f5cf3b137,10,English,TRUE,0.565,0.3328817453845381,1.186607573039802,positive,1,first
four_sliders,morphant,the most dishonest<br>person in the world,the most honest<br>person in the world,0.2,1,48166,4,neg_positive,not honest,honest,dishonest,person,deceitful,Mason,male,NA,f00419d672bfcb6c889dd10f5cf3b137,10,English,TRUE,0.565,0.3328817453845381,-1.0964854788848801,neg_positive,1,first
four_sliders,morphant,the most dishonest<br>person in the world,the most honest<br>person in the world,0.07,1,48166,5,morphant,dishonest,honest,dishonest,person,deceitful,Maya,female,NA,f00419d672bfcb6c889dd10f5cf3b137,10,English,TRUE,0.565,0.3328817453845381,-1.4870145535562072,antonym,1,first
four_sliders,morphant,the most unpatriotic<br>person in the world,the most patriotic<br>person in the world,0.5,1,27862,1,positive,patriotic,patriotic,unpatriotic,person,traitorous,Andrew,male,NA,4fb496df3978366d2a40fc49265449af,7,english,TRUE,0.5205,0.18946551002010759,-0.10819911232299927,positive,1,first
four_sliders,morphant,the most unpatriotic<br>person in the world,the most patriotic<br>person in the world,0.33,1,27862,2,neg_positive,not patriotic,patriotic,unpatriotic,person,traitorous,Noah,male,NA,4fb496df3978366d2a40fc49265449af,7,english,TRUE,0.5205,0.18946551002010759,-1.0054600437820191,neg_positive,1,first
four_sliders,morphant,the most unpatriotic<br>person in the world,the most patriotic<br>person in the world,0.36,1,27862,3,neg_morphant,not unpatriotic,patriotic,unpatriotic,person,traitorous,Diana,female,NA,4fb496df3978366d2a40fc49265449af,7,english,TRUE,0.5205,0.18946551002010759,-0.847119879406898,neg_antonym,1,first
four_sliders,morphant,the most unpatriotic<br>person in the world,the most patriotic<br>person in the world,0.39,1,27862,4,morphant,unpatriotic,patriotic,unpatriotic,person,traitorous,Amber,female,NA,4fb496df3978366d2a40fc49265449af,7,english,TRUE,0.5205,0.18946551002010759,-0.6887797150317768,antonym,1,first
four_sliders,morphant,the most unpatriotic<br>person in the world,the most patriotic<br>person in the world,0.37,1,27862,5,neg_neg_positive,not not patriotic,patriotic,unpatriotic,person,traitorous,Charles,male,NA,4fb496df3978366d2a40fc49265449af,7,english,TRUE,0.5205,0.18946551002010759,-0.7943398246151909,neg_neg_positive,1,first
four_sliders,morphant,the most unambitious<br>person in the world,the most ambitious<br>person in the world,0.78,1,39366,1,neg_neg_positive,not not ambitious,ambitious,unambitious,person,lazy,Laura,female,NA,40edbf390bc4bfaddbb390fb25188950,10,English,TRUE,0.505,0.26246367270001286,1.047764047386153,neg_neg_positive,1,first
four_sliders,morphant,the most unambitious<br>person in the world,the most ambitious<br>person in the world,0.6,1,39366,2,neg_morphant,not unambitious,ambitious,unambitious,person,lazy,Eric,male,NA,40edbf390bc4bfaddbb390fb25188950,10,English,TRUE,0.505,0.26246367270001286,0.36195485273339817,neg_antonym,1,first
four_sliders,morphant,the most unambitious<br>person in the world,the most ambitious<br>person in the world,0.22,1,39366,3,neg_positive,not ambitious,ambitious,unambitious,person,lazy,Claire,female,NA,40edbf390bc4bfaddbb390fb25188950,10,English,TRUE,0.505,0.26246367270001286,-1.085864558200195,neg_positive,1,first
four_sliders,morphant,the most unambitious<br>person in the world,the most ambitious<br>person in the world,0.87,1,39366,4,positive,ambitious,ambitious,unambitious,person,lazy,Melinda,female,NA,40edbf390bc4bfaddbb390fb25188950,10,English,TRUE,0.505,0.26246367270001286,1.3906686447125303,positive,1,first
four_sliders,morphant,the most unambitious<br>person in the world,the most ambitious<br>person in the world,0.21,1,39366,5,morphant,unambitious,ambitious,unambitious,person,lazy,Kim,female,NA,40edbf390bc4bfaddbb390fb25188950,10,English,TRUE,0.505,0.26246367270001286,-1.1239650690142369,antonym,1,first
four_sliders,morphant,the most unambitious<br>person in the world,the most ambitious<br>person in the world,0.82,1,36095,1,positive,ambitious,ambitious,unambitious,person,lazy,Liam,male,NA,ec53e54fcd4b532c707957791b344df5,9,English,TRUE,0.47825,0.2626969346741212,1.3009287695874527,positive,1,first
four_sliders,morphant,the most unambitious<br>person in the world,the most ambitious<br>person in the world,0.49,1,36095,2,neg_positive,not ambitious,ambitious,unambitious,person,lazy,Amber,female,NA,ec53e54fcd4b532c707957791b344df5,9,English,TRUE,0.47825,0.2626969346741212,0.044728348332560494,neg_positive,1,first
four_sliders,morphant,the most unambitious<br>person in the world,the most ambitious<br>person in the world,0.62,1,36095,3,neg_morphant,not unambitious,ambitious,unambitious,person,lazy,Jennifer,female,NA,ec53e54fcd4b532c707957791b344df5,9,English,TRUE,0.47825,0.2626969346741212,0.5395951809481242,neg_antonym,1,first
four_sliders,morphant,the most unambitious<br>person in the world,the most ambitious<br>person in the world,0.2,1,36095,4,morphant,unambitious,ambitious,unambitious,person,lazy,Maya,female,NA,ec53e54fcd4b532c707957791b344df5,9,English,TRUE,0.47825,0.2626969346741212,-1.059205355194466,antonym,1,first
four_sliders,morphant,the most unambitious<br>person in the world,the most ambitious<br>person in the world,0.56,1,36095,5,neg_neg_positive,not not ambitious,ambitious,unambitious,person,lazy,Alexander,male,NA,ec53e54fcd4b532c707957791b344df5,9,English,TRUE,0.47825,0.2626969346741212,0.3111951043563258,neg_neg_positive,1,first
four_sliders,morphant,the most unfriendly<br>person in the world,the most friendly<br>person in the world,0.54,1,22596,1,neg_morphant,not unfriendly,friendly,unfriendly,person,mean,Greg,male,NA,4a2e9055f9a89b424494c0acaab59112,10,English,TRUE,0.522,0.26182005956332605,0.06874950693243724,neg_antonym,1,first
four_sliders,morphant,the most unfriendly<br>person in the world,the most friendly<br>person in the world,0.29,1,22596,2,neg_neg_positive,not not friendly,friendly,unfriendly,person,mean,Anthony,male,NA,4a2e9055f9a89b424494c0acaab59112,10,English,TRUE,0.522,0.26182005956332605,-0.8861047560180794,neg_neg_positive,1,first
four_sliders,morphant,the most unfriendly<br>person in the world,the most friendly<br>person in the world,0.79,1,22596,3,positive,friendly,friendly,unfriendly,person,mean,Noah,male,NA,4a2e9055f9a89b424494c0acaab59112,10,English,TRUE,0.522,0.26182005956332605,1.0236037698829537,positive,1,first
four_sliders,morphant,the most unfriendly<br>person in the world,the most friendly<br>person in the world,0.22,1,22596,4,neg_positive,not friendly,friendly,unfriendly,person,mean,Nicole,female,NA,4a2e9055f9a89b424494c0acaab59112,10,English,TRUE,0.522,0.26182005956332605,-1.153463949644224,neg_positive,1,first
four_sliders,morphant,the most unfriendly<br>person in the world,the most friendly<br>person in the world,0.29,1,22596,5,morphant,unfriendly,friendly,unfriendly,person,mean,Mia,female,NA,4a2e9055f9a89b424494c0acaab59112,10,English,TRUE,0.522,0.26182005956332605,-0.8861047560180794,antonym,1,first
four_sliders,morphant,the most insincere<br>person in the world,the most sincere<br>person in the world,0.32,1,24039,1,neg_neg_positive,not not sincere,sincere,insincere,person,fake,Eric,male,NA,7cdf7c6fa0cd12d92fb630832cb45bac,10,English,TRUE,0.48575,0.19784593202922524,-0.837773101018402,neg_neg_positive,1,first
four_sliders,morphant,the most insincere<br>person in the world,the most sincere<br>person in the world,0.64,1,24039,2,neg_morphant,not insincere,sincere,insincere,person,fake,Amber,female,NA,7cdf7c6fa0cd12d92fb630832cb45bac,10,English,TRUE,0.48575,0.19784593202922524,0.7796470638436712,neg_antonym,1,first
four_sliders,morphant,the most insincere<br>person in the world,the most sincere<br>person in the world,0.3,1,24039,3,neg_positive,not sincere,sincere,insincere,person,fake,Michelle,female,NA,7cdf7c6fa0cd12d92fb630832cb45bac,10,English,TRUE,0.48575,0.19784593202922524,-0.9388618613222817,neg_positive,1,first
four_sliders,morphant,the most insincere<br>person in the world,the most sincere<br>person in the world,0.76,1,24039,4,positive,sincere,sincere,insincere,person,fake,Stephanie,female,NA,7cdf7c6fa0cd12d92fb630832cb45bac,10,English,TRUE,0.48575,0.19784593202922524,1.3861796256669485,positive,1,first
four_sliders,morphant,the most insincere<br>person in the world,the most sincere<br>person in the world,0.32,1,24039,5,morphant,insincere,sincere,insincere,person,fake,Alexander,male,NA,7cdf7c6fa0cd12d92fb630832cb45bac,10,English,TRUE,0.48575,0.19784593202922524,-0.837773101018402,antonym,1,first
four_sliders,morphant,the most impolite<br>person in the world,the most polite<br>person in the world,0.2,1,36160,1,positive,polite,polite,impolite,person,rude,Eric,male,NA,f10422a3398b576e61e88b0845da1db8,10,English,TRUE,0.5835,0.367950317159037,-1.0422602784012334,positive,1,first
four_sliders,morphant,the most impolite<br>person in the world,the most polite<br>person in the world,0.88,1,36160,2,neg_morphant,not impolite,polite,impolite,person,rude,Liam,male,NA,f10422a3398b576e61e88b0845da1db8,10,English,TRUE,0.5835,0.367950317159037,0.8058153130272899,neg_antonym,1,first
four_sliders,morphant,the most impolite<br>person in the world,the most polite<br>person in the world,0.9,1,36160,3,morphant,impolite,polite,impolite,person,rude,Kim,female,NA,f10422a3398b576e61e88b0845da1db8,10,English,TRUE,0.5835,0.367950317159037,0.8601704774810701,antonym,1,first
four_sliders,morphant,the most impolite<br>person in the world,the most polite<br>person in the world,0.88,1,36160,4,neg_neg_positive,not not polite,polite,impolite,person,rude,Jacob,male,NA,f10422a3398b576e61e88b0845da1db8,10,English,TRUE,0.5835,0.367950317159037,0.8058153130272899,neg_neg_positive,1,first
four_sliders,morphant,the most impolite<br>person in the world,the most polite<br>person in the world,0.87,1,36160,5,neg_positive,not polite,polite,impolite,person,rude,Nicole,female,NA,f10422a3398b576e61e88b0845da1db8,10,English,TRUE,0.5835,0.367950317159037,0.7786377308003999,neg_positive,1,first
four_sliders,morphant,the most dishonest<br>person in the world,the most honest<br>person in the world,0.13,1,27811,1,neg_positive,not honest,honest,dishonest,person,deceitful,Melinda,female,NA,9c5dfb663213803525bf4b35cb3461bc,10,English,TRUE,0.28175,0.35608906621366954,-0.42615742632474746,neg_positive,1,first
four_sliders,morphant,the most dishonest<br>person in the world,the most honest<br>person in the world,0.93,1,27811,2,positive,honest,honest,dishonest,person,deceitful,Monica,female,NA,9c5dfb663213803525bf4b35cb3461bc,10,English,TRUE,0.28175,0.35608906621366954,1.8204715098188966,positive,1,first
four_sliders,morphant,the most dishonest<br>person in the world,the most honest<br>person in the world,0.17,1,27811,3,neg_neg_positive,not not honest,honest,dishonest,person,deceitful,Michael,male,NA,9c5dfb663213803525bf4b35cb3461bc,10,English,TRUE,0.28175,0.35608906621366954,-0.31382597951756525,neg_neg_positive,1,first
four_sliders,morphant,the most dishonest<br>person in the world,the most honest<br>person in the world,0.22,1,27811,4,morphant,dishonest,honest,dishonest,person,deceitful,Kathleen,female,NA,9c5dfb663213803525bf4b35cb3461bc,10,English,TRUE,0.28175,0.35608906621366954,-0.1734116710085875,antonym,1,first
four_sliders,morphant,the most dishonest<br>person in the world,the most honest<br>person in the world,0.88,1,27811,5,neg_morphant,not dishonest,honest,dishonest,person,deceitful,Alicia,female,NA,9c5dfb663213803525bf4b35cb3461bc,10,English,TRUE,0.28175,0.35608906621366954,1.6800572013099186,neg_antonym,1,first
four_sliders,morphant,the most unforgiving<br>person in the world,the most forgiving<br>person in the world,0.87,1,67174,1,positive,forgiving,forgiving,unforgiving,person,resentful,Angela,female,NA,817d275bf8220a4e63e2892f0faf1d8c,10,English,TRUE,0.44475,0.2934672261437601,1.449054484168136,positive,1,first
four_sliders,morphant,the most unforgiving<br>person in the world,the most forgiving<br>person in the world,0.51,1,67174,2,neg_morphant,not unforgiving,forgiving,unforgiving,person,resentful,Lucas,male,NA,817d275bf8220a4e63e2892f0faf1d8c,10,English,TRUE,0.44475,0.2934672261437601,0.22234169333796808,neg_antonym,1,first
four_sliders,morphant,the most unforgiving<br>person in the world,the most forgiving<br>person in the world,0.23,1,67174,3,neg_positive,not forgiving,forgiving,unforgiving,person,resentful,Laura,female,NA,817d275bf8220a4e63e2892f0faf1d8c,10,English,TRUE,0.44475,0.2934672261437601,-0.731768255085496,neg_positive,1,first
four_sliders,morphant,the most unforgiving<br>person in the world,the most forgiving<br>person in the world,0.1,1,67174,4,morphant,unforgiving,forgiving,unforgiving,person,resentful,Charles,male,NA,817d275bf8220a4e63e2892f0faf1d8c,10,English,TRUE,0.44475,0.2934672261437601,-1.1747478739963901,antonym,1,first
four_sliders,morphant,the most unforgiving<br>person in the world,the most forgiving<br>person in the world,0.68,1,67174,5,neg_neg_positive,not not forgiving,forgiving,unforgiving,person,resentful,Samuel,male,NA,817d275bf8220a4e63e2892f0faf1d8c,10,English,TRUE,0.44475,0.2934672261437601,0.8016227334522142,neg_neg_positive,1,first
four_sliders,morphant,the most unambitious<br>person in the world,the most ambitious<br>person in the world,0.16,1,35659,1,morphant,unambitious,ambitious,unambitious,person,lazy,Mia,female,NA,527479df7ef0926d66b5b846400d51e6,10,English,TRUE,0.47725,0.2427934386390082,-1.306666282986732,antonym,1,first
four_sliders,morphant,the most unambitious<br>person in the world,the most ambitious<br>person in the world,0.64,1,35659,2,neg_morphant,not unambitious,ambitious,unambitious,person,lazy,Jackie,female,NA,527479df7ef0926d66b5b846400d51e6,10,English,TRUE,0.47725,0.2427934386390082,0.6703228922177797,neg_antonym,1,first
four_sliders,morphant,the most unambitious<br>person in the world,the most ambitious<br>person in the world,0.56,1,35659,3,neg_neg_positive,not not ambitious,ambitious,unambitious,person,lazy,Tom,male,NA,527479df7ef0926d66b5b846400d51e6,10,English,TRUE,0.47725,0.2427934386390082,0.3408246963503613,neg_neg_positive,1,first
four_sliders,morphant,the most unambitious<br>person in the world,the most ambitious<br>person in the world,0.79,1,35659,4,positive,ambitious,ambitious,unambitious,person,lazy,Alicia,female,NA,527479df7ef0926d66b5b846400d51e6,10,English,TRUE,0.47725,0.2427934386390082,1.2881320094691897,positive,1,first
four_sliders,morphant,the most unambitious<br>person in the world,the most ambitious<br>person in the world,0.28,1,35659,5,neg_positive,not ambitious,ambitious,unambitious,person,lazy,Angela,female,NA,527479df7ef0926d66b5b846400d51e6,10,English,TRUE,0.47725,0.2427934386390082,-0.8124189891856038,neg_positive,1,first
four_sliders,morphant,the most unintelligent<br>person in the world,the most intelligent<br>person in the world,0.81,1,7799,1,morphant,unintelligent,intelligent,unintelligent,person,stupid,Julia,female,NA,3af637b8d78dbe5621babbcf170392a8,7,English ,TRUE,0.635,0.16725537053966003,1.0463042199204216,antonym,1,first
four_sliders,morphant,the most unintelligent<br>person in the world,the most intelligent<br>person in the world,0.52,1,7799,2,neg_positive,not intelligent,intelligent,unintelligent,person,stupid,Jackie,female,NA,3af637b8d78dbe5621babbcf170392a8,7,English ,TRUE,0.635,0.16725537053966003,-0.6875713445191339,neg_positive,1,first
four_sliders,morphant,the most unintelligent<br>person in the world,the most intelligent<br>person in the world,0.64,1,7799,3,neg_morphant,not unintelligent,intelligent,unintelligent,person,stupid,Jacob,male,NA,3af637b8d78dbe5621babbcf170392a8,7,English ,TRUE,0.635,0.16725537053966003,0.029894406283440634,neg_antonym,1,first
four_sliders,morphant,the most unintelligent<br>person in the world,the most intelligent<br>person in the world,0.5,1,7799,4,neg_neg_positive,not not intelligent,intelligent,unintelligent,person,stupid,Tom,male,NA,3af637b8d78dbe5621babbcf170392a8,7,English ,TRUE,0.635,0.16725537053966003,-0.8071489696528965,neg_neg_positive,1,first
four_sliders,morphant,the most unintelligent<br>person in the world,the most intelligent<br>person in the world,0.71,1,7799,5,positive,intelligent,intelligent,unintelligent,person,stupid,Stephanie,female,NA,3af637b8d78dbe5621babbcf170392a8,7,English ,TRUE,0.635,0.16725537053966003,0.4484160942516089,positive,1,first
four_sliders,morphant,the most uneducated<br>person in the world,the most educated<br>person in the world,0.51,1,33063,1,neg_positive,not educated,educated,uneducated,person,ignorant,Monica,female,NA,c70176030722cc57d57eb448ba0207d8,10,English,TRUE,0.54625,0.23843170822518445,-0.1520351477990673,neg_positive,1,first
four_sliders,morphant,the most uneducated<br>person in the world,the most educated<br>person in the world,0.68,1,33063,2,neg_neg_positive,not not educated,educated,uneducated,person,ignorant,Greg,male,NA,c70176030722cc57d57eb448ba0207d8,10,English,TRUE,0.54625,0.23843170822518445,0.5609572694655242,neg_neg_positive,1,first
four_sliders,morphant,the most uneducated<br>person in the world,the most educated<br>person in the world,0.64,1,33063,3,neg_morphant,not uneducated,educated,uneducated,person,ignorant,Nicole,female,NA,c70176030722cc57d57eb448ba0207d8,10,English,TRUE,0.54625,0.23843170822518445,0.39319434775620843,neg_antonym,1,first
four_sliders,morphant,the most uneducated<br>person in the world,the most educated<br>person in the world,0.86,1,33063,4,positive,educated,educated,uneducated,person,ignorant,Jackie,female,NA,c70176030722cc57d57eb448ba0207d8,10,English,TRUE,0.54625,0.23843170822518445,1.3158904171574441,positive,1,first
four_sliders,morphant,the most uneducated<br>person in the world,the most educated<br>person in the world,0.27,1,33063,5,morphant,uneducated,educated,uneducated,person,ignorant,Lee,male,NA,c70176030722cc57d57eb448ba0207d8,10,English,TRUE,0.54625,0.23843170822518445,-1.1586126780549608,antonym,1,first
four_sliders,morphant,the most irrational<br>person in the world,the most rational<br>person in the world,0.87,1,31792,1,positive,rational,rational,irrational,person,crazy,Alexander,male,NA,abbf1ee9ebb4f8c792f62d81eb682bd0,8,English,TRUE,0.504,0.31468991656826817,1.163049658505981,positive,1,first
four_sliders,morphant,the most irrational<br>person in the world,the most rational<br>person in the world,0.34,1,31792,2,neg_positive,not rational,rational,irrational,person,crazy,Alicia,female,NA,abbf1ee9ebb4f8c792f62d81eb682bd0,8,English,TRUE,0.504,0.31468991656826817,-0.5211479344125161,neg_positive,1,first
four_sliders,morphant,the most irrational<br>person in the world,the most rational<br>person in the world,0.07,1,31792,3,neg_morphant,not irrational,rational,irrational,person,crazy,Kim,female,NA,abbf1ee9ebb4f8c792f62d81eb682bd0,8,English,TRUE,0.504,0.31468991656826817,-1.3791353874087318,neg_antonym,1,first
four_sliders,morphant,the most irrational<br>person in the world,the most rational<br>person in the world,0.76,1,31792,4,neg_neg_positive,not not rational,rational,irrational,person,crazy,Jeremy,male,NA,abbf1ee9ebb4f8c792f62d81eb682bd0,8,English,TRUE,0.504,0.31468991656826817,0.8134992146927081,neg_neg_positive,1,first
four_sliders,morphant,the most irrational<br>person in the world,the most rational<br>person in the world,0.2,1,31792,5,morphant,irrational,rational,irrational,person,crazy,Dylan,male,NA,abbf1ee9ebb4f8c792f62d81eb682bd0,8,English,TRUE,0.504,0.31468991656826817,-0.9660303174475909,antonym,1,first
four_sliders,morphant,the most unforgiving<br>person in the world,the most forgiving<br>person in the world,0.59,1,21204,1,neg_morphant,not unforgiving,forgiving,unforgiving,person,resentful,Mason,male,NA,57b015493a3bbb59dccf2f2938efeb46,10,English,TRUE,0.46075,0.31015618480752394,0.41672552839857013,neg_antonym,1,first
four_sliders,morphant,the most unforgiving<br>person in the world,the most forgiving<br>person in the world,0.38,1,21204,2,neg_neg_positive,not not forgiving,forgiving,unforgiving,person,resentful,Anthony,male,NA,57b015493a3bbb59dccf2f2938efeb46,10,English,TRUE,0.46075,0.31015618480752394,-0.26035269956042195,neg_neg_positive,1,first
four_sliders,morphant,the most unforgiving<br>person in the world,the most forgiving<br>person in the world,0.8,1,21204,3,positive,forgiving,forgiving,unforgiving,person,resentful,Stephen,male,NA,57b015493a3bbb59dccf2f2938efeb46,10,English,TRUE,0.46075,0.31015618480752394,1.0938037563575624,positive,1,first
four_sliders,morphant,the most unforgiving<br>person in the world,the most forgiving<br>person in the world,0.15,1,21204,4,morphant,unforgiving,forgiving,unforgiving,person,resentful,Laura,female,NA,57b015493a3bbb59dccf2f2938efeb46,10,English,TRUE,0.46075,0.31015618480752394,-1.0019145682774133,antonym,1,first
four_sliders,morphant,the most unforgiving<br>person in the world,the most forgiving<br>person in the world,0.12,1,21204,5,neg_positive,not forgiving,forgiving,unforgiving,person,resentful,Jackie,female,NA,57b015493a3bbb59dccf2f2938efeb46,10,English,TRUE,0.46075,0.31015618480752394,-1.0986400294144123,neg_positive,1,first
four_sliders,morphant,the most ungenerous<br>person in the world,the most generous<br>person in the world,0.48,1,19998,1,positive,generous,generous,ungenerous,person,stingy,Jacob,male,NA,c6cf63262f9166a9d362c16c9a5470a2,9,Englih,TRUE,0.415,0.27420748273842493,0.23704677695468118,positive,1,first
four_sliders,morphant,the most ungenerous<br>person in the world,the most generous<br>person in the world,0.23,1,19998,2,neg_positive,not generous,generous,ungenerous,person,stingy,Alison,female,NA,c6cf63262f9166a9d362c16c9a5470a2,9,Englih,TRUE,0.415,0.27420748273842493,-0.6746715959479386,neg_positive,1,first
four_sliders,morphant,the most ungenerous<br>person in the world,the most generous<br>person in the world,0.09,1,19998,3,neg_neg_positive,not not generous,generous,ungenerous,person,stingy,Charles,male,NA,c6cf63262f9166a9d362c16c9a5470a2,9,Englih,TRUE,0.415,0.27420748273842493,-1.1852338847734056,neg_neg_positive,1,first
four_sliders,morphant,the most ungenerous<br>person in the world,the most generous<br>person in the world,0,1,19998,4,morphant,ungenerous,generous,ungenerous,person,stingy,Noah,male,NA,c6cf63262f9166a9d362c16c9a5470a2,9,Englih,TRUE,0.415,0.27420748273842493,-1.5134524990183489,antonym,1,first
four_sliders,morphant,the most ungenerous<br>person in the world,the most generous<br>person in the world,0.76,1,19998,5,neg_morphant,not ungenerous,generous,ungenerous,person,stingy,Jeremy,male,NA,c6cf63262f9166a9d362c16c9a5470a2,9,Englih,TRUE,0.415,0.27420748273842493,1.2581713546056155,neg_antonym,1,first
four_sliders,morphant,the most unfriendly<br>person in the world,the most friendly<br>person in the world,0.75,1,69069,1,neg_neg_positive,not not friendly,friendly,unfriendly,person,mean,Jennifer,female,NA,9af2998f6b4f2d569048463f3b67a263,10,english,TRUE,0.503,0.2866982689795972,0.8615329310466736,neg_neg_positive,1,first
four_sliders,morphant,the most unfriendly<br>person in the world,the most friendly<br>person in the world,0.76,1,69069,2,positive,friendly,friendly,unfriendly,person,mean,Sasha,female,NA,9af2998f6b4f2d569048463f3b67a263,10,english,TRUE,0.503,0.2866982689795972,0.8964128067975511,positive,1,first
four_sliders,morphant,the most unfriendly<br>person in the world,the most friendly<br>person in the world,0.76,1,69069,3,neg_morphant,not unfriendly,friendly,unfriendly,person,mean,Alicia,female,NA,9af2998f6b4f2d569048463f3b67a263,10,english,TRUE,0.503,0.2866982689795972,0.8964128067975511,neg_antonym,1,first
four_sliders,morphant,the most unfriendly<br>person in the world,the most friendly<br>person in the world,0.18,1,69069,4,neg_positive,not friendly,friendly,unfriendly,person,mean,Kathleen,female,NA,9af2998f6b4f2d569048463f3b67a263,10,english,TRUE,0.503,0.2866982689795972,-1.1266199867533424,neg_positive,1,first
four_sliders,morphant,the most unfriendly<br>person in the world,the most friendly<br>person in the world,0.18,1,69069,5,morphant,unfriendly,friendly,unfriendly,person,mean,Maya,female,NA,9af2998f6b4f2d569048463f3b67a263,10,english,TRUE,0.503,0.2866982689795972,-1.1266199867533424,antonym,1,first
four_sliders,morphant,the most intolerant<br>person in the world,the most tolerant<br>person in the world,0.76,1,61497,1,neg_positive,not tolerant,tolerant,intolerant,person,bigoted,John,male,NA,47724d8cbabf50a162f6669321388435,8,English,TRUE,0.4345,0.36789735190466044,0.8847576594798443,neg_positive,1,first
four_sliders,morphant,the most intolerant<br>person in the world,the most tolerant<br>person in the world,0.64,1,61497,2,morphant,intolerant,tolerant,intolerant,person,bigoted,Liam,male,NA,47724d8cbabf50a162f6669321388435,8,English,TRUE,0.4345,0.36789735190466044,0.5585797205010998,antonym,1,first
four_sliders,morphant,the most intolerant<br>person in the world,the most tolerant<br>person in the world,0.72,1,61497,3,neg_morphant,not intolerant,tolerant,intolerant,person,bigoted,William,male,NA,47724d8cbabf50a162f6669321388435,8,English,TRUE,0.4345,0.36789735190466044,0.7760316798202628,neg_antonym,1,first
four_sliders,morphant,the most intolerant<br>person in the world,the most tolerant<br>person in the world,0.57,1,61497,4,neg_neg_positive,not not tolerant,tolerant,intolerant,person,bigoted,Mason,male,NA,47724d8cbabf50a162f6669321388435,8,English,TRUE,0.4345,0.36789735190466044,0.3683092560968321,neg_neg_positive,1,first
four_sliders,morphant,the most intolerant<br>person in the world,the most tolerant<br>person in the world,0.79,1,61497,5,positive,tolerant,tolerant,intolerant,person,bigoted,Eric,male,NA,47724d8cbabf50a162f6669321388435,8,English,TRUE,0.4345,0.36789735190466044,0.9663021442245305,positive,1,first
four_sliders,morphant,the most impolite<br>person in the world,the most polite<br>person in the world,0.44,1,9270,1,neg_neg_positive,not not polite,polite,impolite,person,rude,John,male,NA,6b18e9c5d3abc7f56b821fa24a5f592e,7,English ,TRUE,0.5205,0.11731941933817332,-0.6861609139741703,neg_neg_positive,1,first
four_sliders,morphant,the most impolite<br>person in the world,the most polite<br>person in the world,0.3,1,9270,2,neg_positive,not polite,polite,impolite,person,rude,Mason,male,NA,6b18e9c5d3abc7f56b821fa24a5f592e,7,English ,TRUE,0.5205,0.11731941933817332,-1.879484242624902,neg_positive,1,first
four_sliders,morphant,the most impolite<br>person in the world,the most polite<br>person in the world,0.59,1,9270,3,morphant,impolite,polite,impolite,person,rude,Jennifer,female,NA,6b18e9c5d3abc7f56b821fa24a5f592e,7,English ,TRUE,0.5205,0.11731941933817332,0.5923997952944704,antonym,1,first
four_sliders,morphant,the most impolite<br>person in the world,the most polite<br>person in the world,0.41,1,9270,4,positive,polite,polite,impolite,person,rude,Michael,male,NA,6b18e9c5d3abc7f56b821fa24a5f592e,7,English ,TRUE,0.5205,0.11731941933817332,-0.9418730558278988,positive,1,first
four_sliders,morphant,the most impolite<br>person in the world,the most polite<br>person in the world,0.56,1,9270,5,neg_morphant,not impolite,polite,impolite,person,rude,Anthony,male,NA,6b18e9c5d3abc7f56b821fa24a5f592e,7,English ,TRUE,0.5205,0.11731941933817332,0.3366876534407429,neg_antonym,1,first
four_sliders,morphant,the most unintelligent<br>person in the world,the most intelligent<br>person in the world,0.35,1,33093,1,neg_positive,not intelligent,intelligent,unintelligent,person,stupid,Tom,male,NA,019e327da42ec41270d2a629990fecbd,10,english,TRUE,0.49575,0.24674171588722968,-0.590698656187563,neg_positive,1,first
four_sliders,morphant,the most unintelligent<br>person in the world,the most intelligent<br>person in the world,0.32,1,33093,2,morphant,unintelligent,intelligent,unintelligent,person,stupid,Alexander,male,NA,019e327da42ec41270d2a629990fecbd,10,english,TRUE,0.49575,0.24674171588722968,-0.7122832852484678,antonym,1,first
four_sliders,morphant,the most unintelligent<br>person in the world,the most intelligent<br>person in the world,0.85,1,33093,3,positive,intelligent,intelligent,unintelligent,person,stupid,Alicia,female,NA,019e327da42ec41270d2a629990fecbd,10,english,TRUE,0.49575,0.24674171588722968,1.4357118281608516,positive,1,first
four_sliders,morphant,the most unintelligent<br>person in the world,the most intelligent<br>person in the world,0.71,1,33093,4,neg_morphant,not unintelligent,intelligent,unintelligent,person,stupid,Anthony,male,NA,019e327da42ec41270d2a629990fecbd,10,english,TRUE,0.49575,0.24674171588722968,0.8683168925432955,neg_antonym,1,first
four_sliders,morphant,the most unintelligent<br>person in the world,the most intelligent<br>person in the world,0.61,1,33093,5,neg_neg_positive,not not intelligent,intelligent,unintelligent,person,stupid,Veronica,female,NA,019e327da42ec41270d2a629990fecbd,10,english,TRUE,0.49575,0.24674171588722968,0.4630347956736126,neg_neg_positive,1,first
four_sliders,morphant,the most unresourceful<br>person in the world,the most resourceful<br>person in the world,0.52,1,27924,1,neg_morphant,not unresourceful,resourceful,unresourceful,person,wasteful,William,male,NA,ee732972e70fbc39f70ef8481b2bc8fe,7,English,TRUE,0.46425,0.27834573133756896,0.200290479513006,neg_antonym,1,first
four_sliders,morphant,the most unresourceful<br>person in the world,the most resourceful<br>person in the world,0.86,1,27924,2,positive,resourceful,resourceful,unresourceful,person,wasteful,Laura,female,NA,ee732972e70fbc39f70ef8481b2bc8fe,7,English,TRUE,0.46425,0.27834573133756896,1.4217929554667639,positive,1,first
four_sliders,morphant,the most unresourceful<br>person in the world,the most resourceful<br>person in the world,0.17,1,27924,3,morphant,unresourceful,resourceful,unresourceful,person,wasteful,Lucas,male,NA,ee732972e70fbc39f70ef8481b2bc8fe,7,English,TRUE,0.46425,0.27834573133756896,-1.0571385398511568,antonym,1,first
four_sliders,morphant,the most unresourceful<br>person in the world,the most resourceful<br>person in the world,0.51,1,27924,4,neg_neg_positive,not not resourceful,resourceful,unresourceful,person,wasteful,Claire,female,NA,ee732972e70fbc39f70ef8481b2bc8fe,7,English,TRUE,0.46425,0.27834573133756896,0.1643639361026013,neg_neg_positive,1,first
four_sliders,morphant,the most unresourceful<br>person in the world,the most resourceful<br>person in the world,0.21,1,27924,5,neg_positive,not resourceful,resourceful,unresourceful,person,wasteful,Jackie,female,NA,ee732972e70fbc39f70ef8481b2bc8fe,7,English,TRUE,0.46425,0.27834573133756896,-0.913432366209538,neg_positive,1,first
four_sliders,morphant,the most uneducated<br>person in the world,the most educated<br>person in the world,0.39,1,42049,1,neg_morphant,not uneducated,educated,uneducated,person,ignorant,Jeremy,male,NA,8e64425392485d3cc2d0d134066598ea,8,English,TRUE,0.46275,0.27922041197150765,-0.26054685431602176,neg_antonym,1,first
four_sliders,morphant,the most uneducated<br>person in the world,the most educated<br>person in the world,0.76,1,42049,2,positive,educated,educated,uneducated,person,ignorant,Kim,female,NA,8e64425392485d3cc2d0d134066598ea,8,English,TRUE,0.46275,0.27922041197150765,1.0645711676348797,positive,1,first
four_sliders,morphant,the most uneducated<br>person in the world,the most educated<br>person in the world,0.16,1,42049,3,morphant,uneducated,educated,uneducated,person,ignorant,Lee,male,NA,8e64425392485d3cc2d0d134066598ea,8,English,TRUE,0.46275,0.27922041197150765,-1.0842688679611765,antonym,1,first
four_sliders,morphant,the most uneducated<br>person in the world,the most educated<br>person in the world,0.24,1,42049,4,neg_positive,not educated,educated,uneducated,person,ignorant,Veronica,female,NA,8e64425392485d3cc2d0d134066598ea,8,English,TRUE,0.46275,0.27922041197150765,-0.7977568632150359,neg_positive,1,first
four_sliders,morphant,the most uneducated<br>person in the world,the most educated<br>person in the world,0.77,1,42049,5,neg_neg_positive,not not educated,educated,uneducated,person,ignorant,Charles,male,NA,8e64425392485d3cc2d0d134066598ea,8,English,TRUE,0.46275,0.27922041197150765,1.1003851682281471,neg_neg_positive,1,first
four_sliders,morphant,the most unkind<br>person in the world,the most kind<br>person in the world,0.51,2,18521,1,neg_neg_positive,not not kind,kind,unkind,person,cruel,Alison,female,NA,1a3d63a540c5d1a40171fbe4f511838c,10,English,TRUE,0.45825,0.29625774900608737,0.17467897522888653,neg_neg_positive,2,first
four_sliders,morphant,the most unkind<br>person in the world,the most kind<br>person in the world,0.89,2,18521,2,positive,kind,kind,unkind,person,cruel,Sophia,female,NA,1a3d63a540c5d1a40171fbe4f511838c,10,English,TRUE,0.45825,0.29625774900608737,1.4573458464748161,positive,2,first
four_sliders,morphant,the most unkind<br>person in the world,the most kind<br>person in the world,0.05,2,18521,3,morphant,unkind,kind,unkind,person,cruel,Veronica,female,NA,1a3d63a540c5d1a40171fbe4f511838c,10,English,TRUE,0.45825,0.29625774900608737,-1.37802302680566,antonym,2,first
four_sliders,morphant,the most unkind<br>person in the world,the most kind<br>person in the world,0.16,2,18521,4,neg_positive,not kind,kind,unkind,person,cruel,Stephanie,female,NA,1a3d63a540c5d1a40171fbe4f511838c,10,English,TRUE,0.45825,0.29625774900608737,-1.006724721971312,neg_positive,2,first
four_sliders,morphant,the most unkind<br>person in the world,the most kind<br>person in the world,0.57,2,18521,5,neg_morphant,not unkind,kind,unkind,person,cruel,Jeremy,male,NA,1a3d63a540c5d1a40171fbe4f511838c,10,English,TRUE,0.45825,0.29625774900608737,0.3772053233203489,neg_antonym,2,first
four_sliders,morphant,the most dishonest<br>person in the world,the most honest<br>person in the world,0.27,2,23620,1,neg_neg_positive,not not honest,honest,dishonest,person,deceitful,Sophia,female,NA,495e666beca342982532fcb8be98055a,9,English,TRUE,0.4565,0.34631059129201586,-0.5385339192318827,neg_neg_positive,2,first
four_sliders,morphant,the most dishonest<br>person in the world,the most honest<br>person in the world,0.97,2,23620,2,positive,honest,honest,dishonest,person,deceitful,Sasha,female,NA,495e666beca342982532fcb8be98055a,9,English,TRUE,0.4565,0.34631059129201586,1.4827730162229047,positive,2,first
four_sliders,morphant,the most dishonest<br>person in the world,the most honest<br>person in the world,0.04,2,23620,3,morphant,dishonest,honest,dishonest,person,deceitful,Michelle,female,NA,495e666beca342982532fcb8be98055a,9,English,TRUE,0.4565,0.34631059129201586,-1.2026776265955987,antonym,2,first
four_sliders,morphant,the most dishonest<br>person in the world,the most honest<br>person in the world,0.71,2,23620,4,neg_morphant,not dishonest,honest,dishonest,person,deceitful,Laura,female,NA,495e666beca342982532fcb8be98055a,9,English,TRUE,0.4565,0.34631059129201586,0.7320018687682693,neg_antonym,2,first
four_sliders,morphant,the most dishonest<br>person in the world,the most honest<br>person in the world,0.28,2,23620,5,neg_positive,not honest,honest,dishonest,person,deceitful,Maya,female,NA,495e666beca342982532fcb8be98055a,9,English,TRUE,0.4565,0.34631059129201586,-0.5096581058682428,neg_positive,2,first
four_sliders,morphant,the most immature<br>person in the world,the most mature<br>person in the world,0.72,2,17831,1,neg_morphant,not immature,mature,immature,person,childish,Jeremy,male,NA,4d12f3a971d5f4e8c09b506a3fc46c07,10,english,TRUE,0.54875,0.28466973666752665,0.6015743085469161,neg_antonym,2,first
four_sliders,morphant,the most immature<br>person in the world,the most mature<br>person in the world,0.23,2,17831,2,morphant,immature,mature,immature,person,childish,Michelle,female,NA,4d12f3a971d5f4e8c09b506a3fc46c07,10,english,TRUE,0.54875,0.28466973666752665,-1.119718603499734,antonym,2,first
four_sliders,morphant,the most immature<br>person in the world,the most mature<br>person in the world,0.71,2,17831,3,neg_neg_positive,not not mature,mature,immature,person,childish,Lee,male,NA,4d12f3a971d5f4e8c09b506a3fc46c07,10,english,TRUE,0.54875,0.28466973666752665,0.5664458817704537,neg_neg_positive,2,first
four_sliders,morphant,the most immature<br>person in the world,the most mature<br>person in the world,0.82,2,17831,4,positive,mature,mature,immature,person,childish,Monica,female,NA,4d12f3a971d5f4e8c09b506a3fc46c07,10,english,TRUE,0.54875,0.28466973666752665,0.9528585763115385,positive,2,first
four_sliders,morphant,the most immature<br>person in the world,the most mature<br>person in the world,0.28,2,17831,5,neg_positive,not mature,mature,immature,person,childish,Tom,male,NA,4d12f3a971d5f4e8c09b506a3fc46c07,10,english,TRUE,0.54875,0.28466973666752665,-0.9440764696174226,neg_positive,2,first
four_sliders,morphant,the most unhappy<br>person in the world,the most happy<br>person in the world,0.55,2,46929,1,neg_neg_positive,not not happy,happy,unhappy,person,sad,Kim,female,NA,cfd5adac125eaf5d7105b4c6688e7965,8,English,TRUE,0.5845,0.16647091067980643,-0.20724341483514788,neg_neg_positive,2,first
four_sliders,morphant,the most unhappy<br>person in the world,the most happy<br>person in the world,0.37,2,46929,2,neg_morphant,not unhappy,happy,unhappy,person,sad,Laura,female,NA,cfd5adac125eaf5d7105b4c6688e7965,8,English,TRUE,0.5845,0.16647091067980643,-1.2885134052793987,neg_antonym,2,first
four_sliders,morphant,the most unhappy<br>person in the world,the most happy<br>person in the world,0.76,2,46929,3,positive,happy,happy,unhappy,person,sad,Angela,female,NA,cfd5adac125eaf5d7105b4c6688e7965,8,English,TRUE,0.5845,0.16647091067980643,1.0542382406831443,positive,2,first
four_sliders,morphant,the most unhappy<br>person in the world,the most happy<br>person in the world,0.6,2,46929,4,morphant,unhappy,happy,unhappy,person,sad,Samuel,male,NA,cfd5adac125eaf5d7105b4c6688e7965,8,English,TRUE,0.5845,0.16647091067980643,0.09310936028825466,antonym,2,first
four_sliders,morphant,the most unhappy<br>person in the world,the most happy<br>person in the world,0.69,2,46929,5,neg_positive,not happy,happy,unhappy,person,sad,Michael,male,NA,cfd5adac125eaf5d7105b4c6688e7965,8,English,TRUE,0.5845,0.16647091067980643,0.6337443555103798,neg_positive,2,first
four_sliders,morphant,the most unreliable<br>person in the world,the most reliable<br>person in the world,0.44,2,28330,1,neg_positive,not reliable,reliable,unreliable,person,flaky,Alison,female,NA,64cde64385e29419acd0332fa9d00fd2,8,English,TRUE,0.508,0.08777009595294827,-0.7747513462495631,neg_positive,2,first
four_sliders,morphant,the most unreliable<br>person in the world,the most reliable<br>person in the world,0.56,2,28330,2,neg_morphant,not unreliable,reliable,unreliable,person,flaky,Gabriel,male,NA,64cde64385e29419acd0332fa9d00fd2,8,English,TRUE,0.508,0.08777009595294827,0.5924569118379017,neg_antonym,2,first
four_sliders,morphant,the most unreliable<br>person in the world,the most reliable<br>person in the world,0.52,2,28330,3,neg_neg_positive,not not reliable,reliable,unreliable,person,flaky,Jackie,female,NA,64cde64385e29419acd0332fa9d00fd2,8,English,TRUE,0.508,0.08777009595294827,0.13672082580874656,neg_neg_positive,2,first
four_sliders,morphant,the most unreliable<br>person in the world,the most reliable<br>person in the world,0.47,2,28330,4,morphant,unreliable,reliable,unreliable,person,flaky,Stephen,male,NA,64cde64385e29419acd0332fa9d00fd2,8,English,TRUE,0.508,0.08777009595294827,-0.4329492817276974,antonym,2,first
four_sliders,morphant,the most unreliable<br>person in the world,the most reliable<br>person in the world,0.63,2,28330,5,positive,reliable,reliable,unreliable,person,flaky,Andrew,male,NA,64cde64385e29419acd0332fa9d00fd2,8,English,TRUE,0.508,0.08777009595294827,1.389995062388922,positive,2,first
four_sliders,morphant,the most unattractive<br>person in the world,the most attractive<br>person in the world,0.23,2,123151,1,neg_positive,not attractive,attractive,unattractive,person,ugly,Sophia,female,NA,ddd51b66bf66fe2828c8a86d59403c49,10,English,TRUE,0.45425,0.33397288005972076,-0.6714617065909656,neg_positive,2,first
four_sliders,morphant,the most unattractive<br>person in the world,the most attractive<br>person in the world,0.84,2,123151,2,positive,attractive,attractive,unattractive,person,ugly,Andrew,male,NA,ddd51b66bf66fe2828c8a86d59403c49,10,English,TRUE,0.45425,0.33397288005972076,1.1550339055405352,positive,2,first
four_sliders,morphant,the most unattractive<br>person in the world,the most attractive<br>person in the world,0.39,2,123151,3,neg_neg_positive,not not attractive,attractive,unattractive,person,ugly,Claire,female,NA,ddd51b66bf66fe2828c8a86d59403c49,10,English,TRUE,0.45425,0.33397288005972076,-0.1923808902941785,neg_neg_positive,2,first
four_sliders,morphant,the most unattractive<br>person in the world,the most attractive<br>person in the world,0.83,2,123151,4,neg_morphant,not unattractive,attractive,unattractive,person,ugly,Tom,male,NA,ddd51b66bf66fe2828c8a86d59403c49,10,English,TRUE,0.45425,0.33397288005972076,1.1250913545219858,neg_antonym,2,first
four_sliders,morphant,the most unattractive<br>person in the world,the most attractive<br>person in the world,0.2,2,123151,5,morphant,unattractive,attractive,unattractive,person,ugly,Angela,female,NA,ddd51b66bf66fe2828c8a86d59403c49,10,English,TRUE,0.45425,0.33397288005972076,-0.7612893596466133,antonym,2,first
four_sliders,morphant,the most intolerant<br>person in the world,the most tolerant<br>person in the world,0.19,2,21103,1,neg_positive,not tolerant,tolerant,intolerant,person,bigoted,Andrew,male,NA,d0f133c5ca6fb4aaba09109030e15d39,7,english,TRUE,0.3585,0.10516287733430828,-1.602276433197484,neg_positive,2,first
four_sliders,morphant,the most intolerant<br>person in the world,the most tolerant<br>person in the world,0.29,2,21103,2,positive,tolerant,tolerant,intolerant,person,bigoted,Laura,female,NA,d0f133c5ca6fb4aaba09109030e15d39,7,english,TRUE,0.3585,0.10516287733430828,-0.6513705381247933,positive,2,first
four_sliders,morphant,the most intolerant<br>person in the world,the most tolerant<br>person in the world,0.38,2,21103,3,neg_neg_positive,not not tolerant,tolerant,intolerant,person,bigoted,Liam,male,NA,d0f133c5ca6fb4aaba09109030e15d39,7,english,TRUE,0.3585,0.10516287733430828,0.2044447674406287,neg_neg_positive,2,first
four_sliders,morphant,the most intolerant<br>person in the world,the most tolerant<br>person in the world,0.5,2,21103,4,neg_morphant,not intolerant,tolerant,intolerant,person,bigoted,Amber,female,NA,d0f133c5ca6fb4aaba09109030e15d39,7,english,TRUE,0.3585,0.10516287733430828,1.3455318415278577,neg_antonym,2,first
four_sliders,morphant,the most intolerant<br>person in the world,the most tolerant<br>person in the world,0.41,2,21103,5,morphant,intolerant,tolerant,intolerant,person,bigoted,Cameron,male,NA,d0f133c5ca6fb4aaba09109030e15d39,7,english,TRUE,0.3585,0.10516287733430828,0.4897165359624357,antonym,2,first
four_sliders,morphant,the most irrational<br>person in the world,the most rational<br>person in the world,0.01,2,20243,1,neg_positive,not rational,rational,irrational,person,crazy,David,male,NA,ce666cbe476651fafc4bc0503ad627aa,10,ENGLISH,TRUE,0.5265,0.4237352221158143,-1.21892156479461,neg_positive,2,first
four_sliders,morphant,the most irrational<br>person in the world,the most rational<br>person in the world,0,2,20243,2,neg_neg_positive,not not rational,rational,irrational,person,crazy,Diana,female,NA,ce666cbe476651fafc4bc0503ad627aa,10,ENGLISH,TRUE,0.5265,0.4237352221158143,-1.2425212078690457,neg_neg_positive,2,first
four_sliders,morphant,the most irrational<br>person in the world,the most rational<br>person in the world,1,2,20243,3,positive,rational,rational,irrational,person,crazy,Monica,female,NA,ce666cbe476651fafc4bc0503ad627aa,10,ENGLISH,TRUE,0.5265,0.4237352221158143,1.117443099574536,positive,2,first
four_sliders,morphant,the most irrational<br>person in the world,the most rational<br>person in the world,0,2,20243,4,morphant,irrational,rational,irrational,person,crazy,Alicia,female,NA,ce666cbe476651fafc4bc0503ad627aa,10,ENGLISH,TRUE,0.5265,0.4237352221158143,-1.2425212078690457,antonym,2,first
four_sliders,morphant,the most irrational<br>person in the world,the most rational<br>person in the world,1,2,20243,5,neg_morphant,not irrational,rational,irrational,person,crazy,Daniel,male,NA,ce666cbe476651fafc4bc0503ad627aa,10,ENGLISH,TRUE,0.5265,0.4237352221158143,1.117443099574536,neg_antonym,2,first
four_sliders,morphant,the most unhappy<br>person in the world,the most happy<br>person in the world,0.63,2,53420,1,positive,happy,happy,unhappy,person,sad,Anthony,male,NA,04988b31e4d50881ec1e06096bf67884,7,English,TRUE,0.54825,0.12046677379984734,0.6786103538875015,positive,2,first
four_sliders,morphant,the most unhappy<br>person in the world,the most happy<br>person in the world,0.25,2,53420,2,morphant,unhappy,happy,unhappy,person,sad,Lee,male,NA,04988b31e4d50881ec1e06096bf67884,7,English,TRUE,0.54825,0.12046677379984734,-2.4757863981277963,antonym,2,first
four_sliders,morphant,the most unhappy<br>person in the world,the most happy<br>person in the world,0.49,2,53420,3,neg_neg_positive,not not happy,happy,unhappy,person,sad,Brooke,female,NA,04988b31e4d50881ec1e06096bf67884,7,English,TRUE,0.54825,0.12046677379984734,-0.4835358179076083,neg_neg_positive,2,first
four_sliders,morphant,the most unhappy<br>person in the world,the most happy<br>person in the world,0.48,2,53420,4,neg_morphant,not unhappy,happy,unhappy,person,sad,Kim,female,NA,04988b31e4d50881ec1e06096bf67884,7,English,TRUE,0.54825,0.12046677379984734,-0.5665462587501162,neg_antonym,2,first
four_sliders,morphant,the most unhappy<br>person in the world,the most happy<br>person in the world,0.55,2,53420,5,neg_positive,not happy,happy,unhappy,person,sad,Amber,female,NA,04988b31e4d50881ec1e06096bf67884,7,English,TRUE,0.54825,0.12046677379984734,0.014526827147439114,neg_positive,2,first
four_sliders,morphant,the most unattractive<br>person in the world,the most attractive<br>person in the world,0.04,2,31141,1,neg_neg_positive,not not attractive,attractive,unattractive,person,ugly,Amber,female,NA,c9df6c176e926e25f7531845919f8f0e,9,ENGLISH,TRUE,0.39,0.44730532221520825,-0.7824633032906492,neg_neg_positive,2,first
four_sliders,morphant,the most unattractive<br>person in the world,the most attractive<br>person in the world,0.96,2,31141,2,neg_morphant,not unattractive,attractive,unattractive,person,ugly,Michelle,female,NA,c9df6c176e926e25f7531845919f8f0e,9,ENGLISH,TRUE,0.39,0.44730532221520825,1.2742973796447712,neg_antonym,2,first
four_sliders,morphant,the most unattractive<br>person in the world,the most attractive<br>person in the world,0.03,2,31141,3,neg_positive,not attractive,attractive,unattractive,person,ugly,Julia,female,NA,c9df6c176e926e25f7531845919f8f0e,9,ENGLISH,TRUE,0.39,0.44730532221520825,-0.8048193976703819,neg_positive,2,first
four_sliders,morphant,the most unattractive<br>person in the world,the most attractive<br>person in the world,0.04,2,31141,4,morphant,unattractive,attractive,unattractive,person,ugly,Noah,male,NA,c9df6c176e926e25f7531845919f8f0e,9,ENGLISH,TRUE,0.39,0.44730532221520825,-0.7824633032906492,antonym,2,first
four_sliders,morphant,the most unattractive<br>person in the world,the most attractive<br>person in the world,0.96,2,31141,5,positive,attractive,attractive,unattractive,person,ugly,Veronica,female,NA,c9df6c176e926e25f7531845919f8f0e,9,ENGLISH,TRUE,0.39,0.44730532221520825,1.2742973796447712,positive,2,first
four_sliders,morphant,the most unfriendly<br>person in the world,the most friendly<br>person in the world,0.67,2,22719,1,positive,friendly,friendly,unfriendly,person,mean,Jennifer,female,NA,4aadb85109fc687a34c1a38407d57b8c,9,English,TRUE,0.454,0.21763059739631493,0.9925074993322491,positive,2,first
four_sliders,morphant,the most unfriendly<br>person in the world,the most friendly<br>person in the world,0.37,2,22719,2,neg_morphant,not unfriendly,friendly,unfriendly,person,mean,John,male,NA,4aadb85109fc687a34c1a38407d57b8c,9,English,TRUE,0.454,0.21763059739631493,-0.385975138629208,neg_antonym,2,first
four_sliders,morphant,the most unfriendly<br>person in the world,the most friendly<br>person in the world,0.24,2,22719,3,neg_positive,not friendly,friendly,unfriendly,person,mean,Anthony,male,NA,4aadb85109fc687a34c1a38407d57b8c,9,English,TRUE,0.454,0.21763059739631493,-0.9833176150791727,neg_positive,2,first
four_sliders,morphant,the most unfriendly<br>person in the world,the most friendly<br>person in the world,0.51,2,22719,4,neg_neg_positive,not not friendly,friendly,unfriendly,person,mean,Jacob,male,NA,4aadb85109fc687a34c1a38407d57b8c,9,English,TRUE,0.454,0.21763059739631493,0.2573167590861386,neg_neg_positive,2,first
four_sliders,morphant,the most unfriendly<br>person in the world,the most friendly<br>person in the world,0.14,2,22719,5,morphant,unfriendly,friendly,unfriendly,person,mean,Cameron,male,NA,4aadb85109fc687a34c1a38407d57b8c,9,English,TRUE,0.454,0.21763059739631493,-1.4428118277329915,antonym,2,first
four_sliders,morphant,the most immature<br>person in the world,the most mature<br>person in the world,0.26,2,47953,1,morphant,immature,mature,immature,person,childish,Stephen,male,NA,6435756c61d829b05d6ec7b6d5dbdbaf,10,English,TRUE,0.513,0.2791029586702039,-0.9064755214542605,antonym,2,first
four_sliders,morphant,the most immature<br>person in the world,the most mature<br>person in the world,0.28,2,47953,2,neg_morphant,not immature,mature,immature,person,childish,Maya,female,NA,6435756c61d829b05d6ec7b6d5dbdbaf,10,English,TRUE,0.513,0.2791029586702039,-0.8348173774657813,neg_antonym,2,first
four_sliders,morphant,the most immature<br>person in the world,the most mature<br>person in the world,0.66,2,47953,3,positive,mature,mature,immature,person,childish,Veronica,female,NA,6435756c61d829b05d6ec7b6d5dbdbaf,10,English,TRUE,0.513,0.2791029586702039,0.5266873583153214,positive,2,first
four_sliders,morphant,the most immature<br>person in the world,the most mature<br>person in the world,0.08,2,47953,4,neg_positive,not mature,mature,immature,person,childish,Jackie,female,NA,6435756c61d829b05d6ec7b6d5dbdbaf,10,English,TRUE,0.513,0.2791029586702039,-1.5513988173505724,neg_positive,2,first
four_sliders,morphant,the most immature<br>person in the world,the most mature<br>person in the world,0.7,2,47953,5,neg_neg_positive,not not mature,mature,immature,person,childish,Charles,male,NA,6435756c61d829b05d6ec7b6d5dbdbaf,10,English,TRUE,0.513,0.2791029586702039,0.6700036462922793,neg_neg_positive,2,first
four_sliders,morphant,the most impolite<br>person in the world,the most polite<br>person in the world,0.71,2,25161,1,positive,polite,polite,impolite,person,rude,Lucas,male,NA,5de9976c6f386ee69830d2bf68ab157a,9,English,TRUE,0.419,0.31595845231571756,0.9210071699845581,positive,2,first
four_sliders,morphant,the most impolite<br>person in the world,the most polite<br>person in the world,0.07,2,25161,2,neg_morphant,not impolite,polite,impolite,person,rude,Kathleen,female,NA,5de9976c6f386ee69830d2bf68ab157a,9,English,TRUE,0.419,0.31595845231571756,-1.1045756093629235,neg_antonym,2,first
four_sliders,morphant,the most impolite<br>person in the world,the most polite<br>person in the world,0.77,2,25161,3,neg_neg_positive,not not polite,polite,impolite,person,rude,Alison,female,NA,5de9976c6f386ee69830d2bf68ab157a,9,English,TRUE,0.419,0.31595845231571756,1.1109055555483847,neg_neg_positive,2,first
four_sliders,morphant,the most impolite<br>person in the world,the most polite<br>person in the world,0.22,2,25161,4,morphant,impolite,polite,impolite,person,rude,Emma,female,NA,5de9976c6f386ee69830d2bf68ab157a,9,English,TRUE,0.419,0.31595845231571756,-0.6298296454533576,antonym,2,first
four_sliders,morphant,the most impolite<br>person in the world,the most polite<br>person in the world,0.14,2,25161,5,neg_positive,not polite,polite,impolite,person,rude,David,male,NA,5de9976c6f386ee69830d2bf68ab157a,9,English,TRUE,0.419,0.31595845231571756,-0.8830274928717928,neg_positive,2,first
four_sliders,morphant,the most unforgiving<br>person in the world,the most forgiving<br>person in the world,0.41,2,7324,1,positive,forgiving,forgiving,unforgiving,person,resentful,Sasha,female,NA,09adb547b3364c927160ce7277a18da0,8,english,TRUE,0.3785,0.09952579874276123,0.3165008510146828,positive,2,first
four_sliders,morphant,the most unforgiving<br>person in the world,the most forgiving<br>person in the world,0.25,2,7324,2,neg_neg_positive,not not forgiving,forgiving,unforgiving,person,resentful,Lee,male,NA,09adb547b3364c927160ce7277a18da0,8,english,TRUE,0.3785,0.09952579874276123,-1.2911225192186278,neg_neg_positive,2,first
four_sliders,morphant,the most unforgiving<br>person in the world,the most forgiving<br>person in the world,0.41,2,7324,3,morphant,unforgiving,forgiving,unforgiving,person,resentful,Jackie,female,NA,09adb547b3364c927160ce7277a18da0,8,english,TRUE,0.3785,0.09952579874276123,0.3165008510146828,antonym,2,first
four_sliders,morphant,the most unforgiving<br>person in the world,the most forgiving<br>person in the world,0.38,2,7324,4,neg_positive,not forgiving,forgiving,unforgiving,person,resentful,Anthony,male,NA,09adb547b3364c927160ce7277a18da0,8,english,TRUE,0.3785,0.09952579874276123,0.015071469095937302,neg_positive,2,first
four_sliders,morphant,the most unforgiving<br>person in the world,the most forgiving<br>person in the world,0.5,2,7324,5,neg_morphant,not unforgiving,forgiving,unforgiving,person,resentful,Angela,female,NA,09adb547b3364c927160ce7277a18da0,8,english,TRUE,0.3785,0.09952579874276123,1.2207889967709202,neg_antonym,2,first
four_sliders,morphant,the most uneducated<br>person in the world,the most educated<br>person in the world,0.95,2,31733,1,positive,educated,educated,uneducated,person,ignorant,Julia,female,NA,1847216991273f0e415fa659930ab8b1,7,English,TRUE,0.50625,0.38425210407645066,1.1548407810714594,positive,2,first
four_sliders,morphant,the most uneducated<br>person in the world,the most educated<br>person in the world,0.21,2,31733,2,neg_positive,not educated,educated,uneducated,person,ignorant,Tom,male,NA,1847216991273f0e415fa659930ab8b1,7,English,TRUE,0.50625,0.38425210407645066,-0.7709782115885518,neg_positive,2,first
four_sliders,morphant,the most uneducated<br>person in the world,the most educated<br>person in the world,0.07,2,31733,3,morphant,uneducated,educated,uneducated,person,ignorant,Jacob,male,NA,1847216991273f0e415fa659930ab8b1,7,English,TRUE,0.50625,0.38425210407645066,-1.1353223453350403,antonym,2,first
four_sliders,morphant,the most uneducated<br>person in the world,the most educated<br>person in the world,0.7,2,31733,4,neg_neg_positive,not not educated,educated,uneducated,person,ignorant,Melinda,female,NA,1847216991273f0e415fa659930ab8b1,7,English,TRUE,0.50625,0.38425210407645066,0.5042262565241583,neg_neg_positive,2,first
four_sliders,morphant,the most uneducated<br>person in the world,the most educated<br>person in the world,0.82,2,31733,5,neg_morphant,not uneducated,educated,uneducated,person,ignorant,Lucas,male,NA,1847216991273f0e415fa659930ab8b1,7,English,TRUE,0.50625,0.38425210407645066,0.8165212283068628,neg_antonym,2,first
four_sliders,morphant,the most unintelligent<br>person in the world,the most intelligent<br>person in the world,0.17,2,31698,1,morphant,unintelligent,intelligent,unintelligent,person,stupid,Gabriel,male,NA,bff1bf326a27627672e08aa22ec1fb20,10,English,TRUE,0.44,0.2647592036123313,-1.019794576793419,antonym,2,first
four_sliders,morphant,the most unintelligent<br>person in the world,the most intelligent<br>person in the world,0.72,2,31698,2,neg_morphant,not unintelligent,intelligent,unintelligent,person,stupid,Alicia,female,NA,bff1bf326a27627672e08aa22ec1fb20,10,English,TRUE,0.44,0.2647592036123313,1.057564746304286,neg_antonym,2,first
four_sliders,morphant,the most unintelligent<br>person in the world,the most intelligent<br>person in the world,0.86,2,31698,3,positive,intelligent,intelligent,unintelligent,person,stupid,Eric,male,NA,bff1bf326a27627672e08aa22ec1fb20,10,English,TRUE,0.44,0.2647592036123313,1.5863471194564291,positive,2,first
four_sliders,morphant,the most unintelligent<br>person in the world,the most intelligent<br>person in the world,0.15,2,31698,4,neg_neg_positive,not not intelligent,intelligent,unintelligent,person,stupid,Jeremy,male,NA,bff1bf326a27627672e08aa22ec1fb20,10,English,TRUE,0.44,0.2647592036123313,-1.0953349158151537,neg_neg_positive,2,first
four_sliders,morphant,the most unintelligent<br>person in the world,the most intelligent<br>person in the world,0.42,2,31698,5,neg_positive,not intelligent,intelligent,unintelligent,person,stupid,David,male,NA,bff1bf326a27627672e08aa22ec1fb20,10,English,TRUE,0.44,0.2647592036123313,-0.07554033902173479,neg_positive,2,first
four_sliders,morphant,the most unkind<br>person in the world,the most kind<br>person in the world,0.76,2,27727,1,neg_neg_positive,not not kind,kind,unkind,person,cruel,Jacob,male,NA,f00419d672bfcb6c889dd10f5cf3b137,10,English,TRUE,0.565,0.3328817453845381,0.585793612006991,neg_neg_positive,2,first
four_sliders,morphant,the most unkind<br>person in the world,the most kind<br>person in the world,0.19,2,27727,2,morphant,unkind,kind,unkind,person,cruel,Daniel,male,NA,f00419d672bfcb6c889dd10f5cf3b137,10,English,TRUE,0.565,0.3328817453845381,-1.1265261769365207,antonym,2,first
four_sliders,morphant,the most unkind<br>person in the world,the most kind<br>person in the world,0.7,2,27727,3,neg_morphant,not unkind,kind,unkind,person,cruel,Greg,male,NA,f00419d672bfcb6c889dd10f5cf3b137,10,English,TRUE,0.565,0.3328817453845381,0.4055494236971475,neg_antonym,2,first
four_sliders,morphant,the most unkind<br>person in the world,the most kind<br>person in the world,0.95,2,27727,4,positive,kind,kind,unkind,person,cruel,Sasha,female,NA,f00419d672bfcb6c889dd10f5cf3b137,10,English,TRUE,0.565,0.3328817453845381,1.1565668749881615,positive,2,first
four_sliders,morphant,the most unkind<br>person in the world,the most kind<br>person in the world,0.1,2,27727,5,neg_positive,not kind,kind,unkind,person,cruel,Tom,male,NA,f00419d672bfcb6c889dd10f5cf3b137,10,English,TRUE,0.565,0.3328817453845381,-1.3968924594012857,neg_positive,2,first
four_sliders,morphant,the most unintelligent<br>person in the world,the most intelligent<br>person in the world,0.73,2,25195,1,neg_morphant,not unintelligent,intelligent,unintelligent,person,stupid,Stephanie,female,NA,4fb496df3978366d2a40fc49265449af,7,english,TRUE,0.5205,0.18946551002010759,1.1057421478862628,neg_antonym,2,first
four_sliders,morphant,the most unintelligent<br>person in the world,the most intelligent<br>person in the world,0.3,2,25195,2,morphant,unintelligent,intelligent,unintelligent,person,stupid,Greg,male,NA,4fb496df3978366d2a40fc49265449af,7,english,TRUE,0.5205,0.18946551002010759,-1.1638002081571404,antonym,2,first
four_sliders,morphant,the most unintelligent<br>person in the world,the most intelligent<br>person in the world,0.31,2,25195,3,neg_positive,not intelligent,intelligent,unintelligent,person,stupid,Melinda,female,NA,4fb496df3978366d2a40fc49265449af,7,english,TRUE,0.5205,0.18946551002010759,-1.1110201533654334,neg_positive,2,first
four_sliders,morphant,the most unintelligent<br>person in the world,the most intelligent<br>person in the world,0.73,2,25195,4,neg_neg_positive,not not intelligent,intelligent,unintelligent,person,stupid,Emma,female,NA,4fb496df3978366d2a40fc49265449af,7,english,TRUE,0.5205,0.18946551002010759,1.1057421478862628,neg_neg_positive,2,first
four_sliders,morphant,the most unintelligent<br>person in the world,the most intelligent<br>person in the world,0.73,2,25195,5,positive,intelligent,intelligent,unintelligent,person,stupid,Jennifer,female,NA,4fb496df3978366d2a40fc49265449af,7,english,TRUE,0.5205,0.18946551002010759,1.1057421478862628,positive,2,first
four_sliders,morphant,the most unaffectionate<br>person in the world,the most affectionate<br>person in the world,0.7,2,25111,1,neg_neg_positive,not not affectionate,affectionate,unaffectionate,person,cold,Alison,female,NA,40edbf390bc4bfaddbb390fb25188950,10,English,TRUE,0.505,0.26246367270001286,0.7429599608738173,neg_neg_positive,2,first
four_sliders,morphant,the most unaffectionate<br>person in the world,the most affectionate<br>person in the world,0.73,2,25111,2,neg_morphant,not unaffectionate,affectionate,unaffectionate,person,cold,Jackie,female,NA,40edbf390bc4bfaddbb390fb25188950,10,English,TRUE,0.505,0.26246367270001286,0.8572614933159431,neg_antonym,2,first
four_sliders,morphant,the most unaffectionate<br>person in the world,the most affectionate<br>person in the world,0.21,2,25111,3,morphant,unaffectionate,affectionate,unaffectionate,person,cold,Anthony,male,NA,40edbf390bc4bfaddbb390fb25188950,10,English,TRUE,0.505,0.26246367270001286,-1.1239650690142369,antonym,2,first
four_sliders,morphant,the most unaffectionate<br>person in the world,the most affectionate<br>person in the world,0.84,2,25111,4,positive,affectionate,affectionate,unaffectionate,person,cold,Charles,male,NA,40edbf390bc4bfaddbb390fb25188950,10,English,TRUE,0.505,0.26246367270001286,1.2763671122704043,positive,2,first
four_sliders,morphant,the most unaffectionate<br>person in the world,the most affectionate<br>person in the world,0.2,2,25111,5,neg_positive,not affectionate,affectionate,unaffectionate,person,cold,Jacob,male,NA,40edbf390bc4bfaddbb390fb25188950,10,English,TRUE,0.505,0.26246367270001286,-1.1620655798282786,neg_positive,2,first
four_sliders,morphant,the most uneducated<br>person in the world,the most educated<br>person in the world,0.17,2,13932,1,morphant,uneducated,educated,uneducated,person,ignorant,Alison,female,NA,ec53e54fcd4b532c707957791b344df5,9,English,TRUE,0.47825,0.2626969346741212,-1.1734053934903654,antonym,2,first
four_sliders,morphant,the most uneducated<br>person in the world,the most educated<br>person in the world,0.43,2,13932,2,neg_morphant,not uneducated,educated,uneducated,person,ignorant,Kathleen,female,NA,ec53e54fcd4b532c707957791b344df5,9,English,TRUE,0.47825,0.2626969346741212,-0.1836717282592381,neg_antonym,2,first
four_sliders,morphant,the most uneducated<br>person in the world,the most educated<br>person in the world,0.53,2,13932,3,neg_neg_positive,not not educated,educated,uneducated,person,ignorant,Monica,female,NA,ec53e54fcd4b532c707957791b344df5,9,English,TRUE,0.47825,0.2626969346741212,0.19699506606042638,neg_neg_positive,2,first
four_sliders,morphant,the most uneducated<br>person in the world,the most educated<br>person in the world,0.85,2,13932,4,positive,educated,educated,uneducated,person,ignorant,William,male,NA,ec53e54fcd4b532c707957791b344df5,9,English,TRUE,0.47825,0.2626969346741212,1.4151288078833522,positive,2,first
four_sliders,morphant,the most uneducated<br>person in the world,the most educated<br>person in the world,0.21,2,13932,5,neg_positive,not educated,educated,uneducated,person,ignorant,Lucas,male,NA,ec53e54fcd4b532c707957791b344df5,9,English,TRUE,0.47825,0.2626969346741212,-1.0211386757624996,neg_positive,2,first
four_sliders,morphant,the most irrational<br>person in the world,the most rational<br>person in the world,0.13,2,15109,1,morphant,irrational,rational,irrational,person,crazy,Michelle,female,NA,4a2e9055f9a89b424494c0acaab59112,10,English,TRUE,0.522,0.26182005956332605,-1.4972114843064097,antonym,2,first
four_sliders,morphant,the most irrational<br>person in the world,the most rational<br>person in the world,0.6,2,15109,2,neg_morphant,not irrational,rational,irrational,person,crazy,Dylan,male,NA,4a2e9055f9a89b424494c0acaab59112,10,English,TRUE,0.522,0.26182005956332605,0.29791453004056095,neg_antonym,2,first
four_sliders,morphant,the most irrational<br>person in the world,the most rational<br>person in the world,0.79,2,15109,3,positive,rational,rational,irrational,person,crazy,Jennifer,female,NA,4a2e9055f9a89b424494c0acaab59112,10,English,TRUE,0.522,0.26182005956332605,1.0236037698829537,positive,2,first
four_sliders,morphant,the most irrational<br>person in the world,the most rational<br>person in the world,0.24,2,15109,4,neg_positive,not rational,rational,irrational,person,crazy,Brooke,female,NA,4a2e9055f9a89b424494c0acaab59112,10,English,TRUE,0.522,0.26182005956332605,-1.0770756086081825,neg_positive,2,first
four_sliders,morphant,the most irrational<br>person in the world,the most rational<br>person in the world,0.77,2,15109,5,neg_neg_positive,not not rational,rational,irrational,person,crazy,Alicia,female,NA,4a2e9055f9a89b424494c0acaab59112,10,English,TRUE,0.522,0.26182005956332605,0.9472154288469122,neg_neg_positive,2,first
four_sliders,morphant,the most ungenerous<br>person in the world,the most generous<br>person in the world,0.28,2,13847,1,neg_neg_positive,not not generous,generous,ungenerous,person,stingy,Diana,female,NA,7cdf7c6fa0cd12d92fb630832cb45bac,10,English,TRUE,0.48575,0.19784593202922524,-1.0399506216261611,neg_neg_positive,2,first
four_sliders,morphant,the most ungenerous<br>person in the world,the most generous<br>person in the world,0.26,2,13847,2,neg_positive,not generous,generous,ungenerous,person,stingy,Daniel,male,NA,7cdf7c6fa0cd12d92fb630832cb45bac,10,English,TRUE,0.48575,0.19784593202922524,-1.1410393819300406,neg_positive,2,first
four_sliders,morphant,the most ungenerous<br>person in the world,the most generous<br>person in the world,0.75,2,13847,3,positive,generous,generous,ungenerous,person,stingy,Jacob,male,NA,7cdf7c6fa0cd12d92fb630832cb45bac,10,English,TRUE,0.48575,0.19784593202922524,1.3356352455150087,positive,2,first
four_sliders,morphant,the most ungenerous<br>person in the world,the most generous<br>person in the world,0.69,2,13847,4,neg_morphant,not ungenerous,generous,ungenerous,person,stingy,Laura,female,NA,7cdf7c6fa0cd12d92fb630832cb45bac,10,English,TRUE,0.48575,0.19784593202922524,1.0323689646033698,neg_antonym,2,first
four_sliders,morphant,the most ungenerous<br>person in the world,the most generous<br>person in the world,0.29,2,13847,5,morphant,ungenerous,generous,ungenerous,person,stingy,Jackie,female,NA,7cdf7c6fa0cd12d92fb630832cb45bac,10,English,TRUE,0.48575,0.19784593202922524,-0.9894062414742215,antonym,2,first
four_sliders,morphant,the most intolerant<br>person in the world,the most tolerant<br>person in the world,0.92,2,24186,1,positive,tolerant,tolerant,intolerant,person,bigoted,Stephen,male,NA,f10422a3398b576e61e88b0845da1db8,10,English,TRUE,0.5835,0.367950317159037,0.9145256419348502,positive,2,first
four_sliders,morphant,the most intolerant<br>person in the world,the most tolerant<br>person in the world,0.92,2,24186,2,neg_neg_positive,not not tolerant,tolerant,intolerant,person,bigoted,Charles,male,NA,f10422a3398b576e61e88b0845da1db8,10,English,TRUE,0.5835,0.367950317159037,0.9145256419348502,neg_neg_positive,2,first
four_sliders,morphant,the most intolerant<br>person in the world,the most tolerant<br>person in the world,0.17,2,24186,3,neg_morphant,not intolerant,tolerant,intolerant,person,bigoted,William,male,NA,f10422a3398b576e61e88b0845da1db8,10,English,TRUE,0.5835,0.367950317159037,-1.1237930250819035,neg_antonym,2,first
four_sliders,morphant,the most intolerant<br>person in the world,the most tolerant<br>person in the world,0.2,2,24186,4,morphant,intolerant,tolerant,intolerant,person,bigoted,Alison,female,NA,f10422a3398b576e61e88b0845da1db8,10,English,TRUE,0.5835,0.367950317159037,-1.0422602784012334,antonym,2,first
four_sliders,morphant,the most intolerant<br>person in the world,the most tolerant<br>person in the world,0.21,2,24186,5,neg_positive,not tolerant,tolerant,intolerant,person,bigoted,Michael,male,NA,f10422a3398b576e61e88b0845da1db8,10,English,TRUE,0.5835,0.367950317159037,-1.0150826961743435,neg_positive,2,first
four_sliders,morphant,the most unhappy<br>person in the world,the most happy<br>person in the world,0.03,2,11429,1,neg_morphant,not unhappy,happy,unhappy,person,sad,Julia,female,NA,9c5dfb663213803525bf4b35cb3461bc,10,English,TRUE,0.28175,0.35608906621366954,-0.7069860433427031,neg_antonym,2,first
four_sliders,morphant,the most unhappy<br>person in the world,the most happy<br>person in the world,0.07,2,11429,2,morphant,unhappy,happy,unhappy,person,sad,Jeremy,male,NA,9c5dfb663213803525bf4b35cb3461bc,10,English,TRUE,0.28175,0.35608906621366954,-0.5946545965355208,antonym,2,first
four_sliders,morphant,the most unhappy<br>person in the world,the most happy<br>person in the world,0.09,2,11429,3,neg_positive,not happy,happy,unhappy,person,sad,Jacob,male,NA,9c5dfb663213803525bf4b35cb3461bc,10,English,TRUE,0.28175,0.35608906621366954,-0.5384888731319297,neg_positive,2,first
four_sliders,morphant,the most unhappy<br>person in the world,the most happy<br>person in the world,0.95,2,11429,4,positive,happy,happy,unhappy,person,sad,Anthony,male,NA,9c5dfb663213803525bf4b35cb3461bc,10,English,TRUE,0.28175,0.35608906621366954,1.8766372332224877,positive,2,first
four_sliders,morphant,the most unhappy<br>person in the world,the most happy<br>person in the world,0.12,2,11429,5,neg_neg_positive,not not happy,happy,unhappy,person,sad,Mason,male,NA,9c5dfb663213803525bf4b35cb3461bc,10,English,TRUE,0.28175,0.35608906621366954,-0.45424028802654304,neg_neg_positive,2,first
four_sliders,morphant,the most uneducated<br>person in the world,the most educated<br>person in the world,0.11,2,22056,1,morphant,uneducated,educated,uneducated,person,ignorant,Alicia,female,NA,817d275bf8220a4e63e2892f0faf1d8c,10,English,TRUE,0.44475,0.2934672261437601,-1.1406725186955522,antonym,2,first
four_sliders,morphant,the most uneducated<br>person in the world,the most educated<br>person in the world,0.11,2,22056,2,neg_positive,not educated,educated,uneducated,person,ignorant,Stephen,male,NA,817d275bf8220a4e63e2892f0faf1d8c,10,English,TRUE,0.44475,0.2934672261437601,-1.1406725186955522,neg_positive,2,first
four_sliders,morphant,the most uneducated<br>person in the world,the most educated<br>person in the world,0.51,2,22056,3,neg_morphant,not uneducated,educated,uneducated,person,ignorant,Amber,female,NA,817d275bf8220a4e63e2892f0faf1d8c,10,English,TRUE,0.44475,0.2934672261437601,0.22234169333796808,neg_antonym,2,first
four_sliders,morphant,the most uneducated<br>person in the world,the most educated<br>person in the world,0.64,2,22056,4,neg_neg_positive,not not educated,educated,uneducated,person,ignorant,Alexander,male,NA,817d275bf8220a4e63e2892f0faf1d8c,10,English,TRUE,0.44475,0.2934672261437601,0.6653213122488622,neg_neg_positive,2,first
four_sliders,morphant,the most uneducated<br>person in the world,the most educated<br>person in the world,0.87,2,22056,5,positive,educated,educated,uneducated,person,ignorant,Diana,female,NA,817d275bf8220a4e63e2892f0faf1d8c,10,English,TRUE,0.44475,0.2934672261437601,1.449054484168136,positive,2,first
four_sliders,morphant,the most intolerant<br>person in the world,the most tolerant<br>person in the world,0.17,2,23318,1,neg_positive,not tolerant,tolerant,intolerant,person,bigoted,Anthony,male,NA,527479df7ef0926d66b5b846400d51e6,10,English,TRUE,0.47725,0.2427934386390082,-1.2654790085033045,neg_positive,2,first
four_sliders,morphant,the most intolerant<br>person in the world,the most tolerant<br>person in the world,0.5,2,23318,2,neg_morphant,not intolerant,tolerant,intolerant,person,bigoted,Alison,female,NA,527479df7ef0926d66b5b846400d51e6,10,English,TRUE,0.47725,0.2427934386390082,0.09370104944979712,neg_antonym,2,first
four_sliders,morphant,the most intolerant<br>person in the world,the most tolerant<br>person in the world,0.82,2,23318,3,positive,tolerant,tolerant,intolerant,person,bigoted,Charles,male,NA,527479df7ef0926d66b5b846400d51e6,10,English,TRUE,0.47725,0.2427934386390082,1.4116938329194713,positive,2,first
four_sliders,morphant,the most intolerant<br>person in the world,the most tolerant<br>person in the world,0.16,2,23318,4,morphant,intolerant,tolerant,intolerant,person,bigoted,Lucas,male,NA,527479df7ef0926d66b5b846400d51e6,10,English,TRUE,0.47725,0.2427934386390082,-1.306666282986732,antonym,2,first
four_sliders,morphant,the most intolerant<br>person in the world,the most tolerant<br>person in the world,0.57,2,23318,5,neg_neg_positive,not not tolerant,tolerant,intolerant,person,bigoted,Lee,male,NA,527479df7ef0926d66b5b846400d51e6,10,English,TRUE,0.47725,0.2427934386390082,0.3820119708337882,neg_neg_positive,2,first
four_sliders,morphant,the most uneducated<br>person in the world,the most educated<br>person in the world,0.71,2,4887,1,neg_morphant,not uneducated,educated,uneducated,person,ignorant,Sophia,female,NA,3af637b8d78dbe5621babbcf170392a8,7,English ,TRUE,0.635,0.16725537053966003,0.4484160942516089,neg_antonym,2,first
four_sliders,morphant,the most uneducated<br>person in the world,the most educated<br>person in the world,0.38,2,4887,2,morphant,uneducated,educated,uneducated,person,ignorant,Laura,female,NA,3af637b8d78dbe5621babbcf170392a8,7,English ,TRUE,0.635,0.16725537053966003,-1.5246147204554712,antonym,2,first
four_sliders,morphant,the most uneducated<br>person in the world,the most educated<br>person in the world,0.58,2,4887,3,neg_neg_positive,not not educated,educated,uneducated,person,ignorant,Michelle,female,NA,3af637b8d78dbe5621babbcf170392a8,7,English ,TRUE,0.635,0.16725537053966003,-0.328838469117847,neg_neg_positive,2,first
four_sliders,morphant,the most uneducated<br>person in the world,the most educated<br>person in the world,0.58,2,4887,4,neg_positive,not educated,educated,uneducated,person,ignorant,Emma,female,NA,3af637b8d78dbe5621babbcf170392a8,7,English ,TRUE,0.635,0.16725537053966003,-0.328838469117847,neg_positive,2,first
four_sliders,morphant,the most uneducated<br>person in the world,the most educated<br>person in the world,0.7,2,4887,5,positive,educated,educated,uneducated,person,ignorant,Greg,male,NA,3af637b8d78dbe5621babbcf170392a8,7,English ,TRUE,0.635,0.16725537053966003,0.3886272816847276,positive,2,first
