trial_type,antonym_type,endpoint_low,endpoint_high,response,trial_num,rt,slider_position,adjective_type,adjective,positive,morphant,referent,lexant,name,gender,exptid,workerid,language,englishNative,n_correct,meanRating,sdRating,normalizedResponse,adjective_type_rescaled,item,antonym,presentation_num,splitHalf
four_sliders,morphant,the most insincere<br>person in the world,the most sincere<br>person in the world,0.26,1,55727,1,morphant,insincere,sincere,insincere,person,fake,Liam,male,1,6e405bdae63736f14976fd81ce33dad0,English,TRUE,9,0.475,0.25886824053453683,-0.8305383447426639,antonym,insincere--sincere,insincere,1,first
four_sliders,morphant,the most insincere<br>person in the world,the most sincere<br>person in the world,0.78,1,55727,2,positive,sincere,sincere,insincere,person,fake,Andrew,male,1,6e405bdae63736f14976fd81ce33dad0,English,TRUE,9,0.475,0.25886824053453683,1.1782055588209885,positive,insincere--sincere,insincere,1,first
four_sliders,morphant,the most insincere<br>person in the world,the most sincere<br>person in the world,0.73,1,55727,3,neg_neg_positive,not not sincere,sincere,insincere,person,fake,Jeremy,male,1,6e405bdae63736f14976fd81ce33dad0,English,TRUE,9,0.475,0.25886824053453683,0.9850571065552526,neg_neg_positive,insincere--sincere,insincere,1,first
four_sliders,morphant,the most insincere<br>person in the world,the most sincere<br>person in the world,0.26,1,55727,4,neg_positive,not sincere,sincere,insincere,person,fake,Anthony,male,1,6e405bdae63736f14976fd81ce33dad0,English,TRUE,9,0.475,0.25886824053453683,-0.8305383447426639,neg_positive,insincere--sincere,insincere,1,first
four_sliders,morphant,the most unfriendly<br>person in the world,the most friendly<br>person in the world,0.5,1,16891,1,neg_neg_positive,not not friendly,friendly,unfriendly,person,mean,Sasha,female,1,54f34f4b9fe0451715c567ac2e5d9481,English,TRUE,9,0.41020833333333334,0.30519954813924144,0.2942064207306786,neg_neg_positive,unfriendly--friendly,unfriendly,1,first
four_sliders,morphant,the most unfriendly<br>person in the world,the most friendly<br>person in the world,0.86,1,16891,2,positive,friendly,friendly,unfriendly,person,mean,Liam,male,1,54f34f4b9fe0451715c567ac2e5d9481,English,TRUE,9,0.41020833333333334,0.30519954813924144,1.4737625576740954,positive,unfriendly--friendly,unfriendly,1,first
four_sliders,morphant,the most unfriendly<br>person in the world,the most friendly<br>person in the world,0.08,1,16891,3,morphant,unfriendly,friendly,unfriendly,person,mean,Andrew,male,1,54f34f4b9fe0451715c567ac2e5d9481,English,TRUE,9,0.41020833333333334,0.30519954813924144,-1.0819424057033076,antonym,unfriendly--friendly,unfriendly,1,first
four_sliders,morphant,the most unfriendly<br>person in the world,the most friendly<br>person in the world,0.13,1,16891,4,neg_positive,not friendly,friendly,unfriendly,person,mean,William,male,1,54f34f4b9fe0451715c567ac2e5d9481,English,TRUE,9,0.41020833333333334,0.30519954813924144,-0.9181151644611665,neg_positive,unfriendly--friendly,unfriendly,1,first
four_sliders,morphant,the most immature<br>person in the world,the most mature<br>person in the world,0.2,1,17332,1,neg_positive,not mature,mature,immature,person,childish,Sasha,female,1,cdb24dcf9ff9bd218cae3299883fd8a6,English,TRUE,10,0.3797916666666667,0.3072422952885628,-0.5851787641991343,neg_positive,immature--mature,immature,1,first
four_sliders,morphant,the most immature<br>person in the world,the most mature<br>person in the world,0.8,1,17332,2,positive,mature,mature,immature,person,childish,Sophia,female,1,cdb24dcf9ff9bd218cae3299883fd8a6,English,TRUE,10,0.3797916666666667,0.3072422952885628,1.367677366616053,positive,immature--mature,immature,1,first
four_sliders,morphant,the most immature<br>person in the world,the most mature<br>person in the world,0,1,17332,3,morphant,immature,mature,immature,person,childish,Emma,female,1,cdb24dcf9ff9bd218cae3299883fd8a6,English,TRUE,10,0.3797916666666667,0.3072422952885628,-1.2361308078041968,antonym,immature--mature,immature,1,first
four_sliders,morphant,the most immature<br>person in the world,the most mature<br>person in the world,0.51,1,17332,4,neg_neg_positive,not not mature,mature,immature,person,childish,William,male,1,cdb24dcf9ff9bd218cae3299883fd8a6,English,TRUE,10,0.3797916666666667,0.3072422952885628,0.4237969033887125,neg_neg_positive,immature--mature,immature,1,first
four_sliders,morphant,the most unaffectionate<br>person in the world,the most affectionate<br>person in the world,1,1,38270,1,positive,affectionate,affectionate,unaffectionate,person,cold,Jennifer,female,1,e238b5a840566cda00587f69ad95a225,English,TRUE,10,0.5125,0.3769615364994153,1.2932353908758971,positive,unaffectionate--affectionate,unaffectionate,1,first
four_sliders,morphant,the most unaffectionate<br>person in the world,the most affectionate<br>person in the world,0.64,1,38270,2,neg_positive,not affectionate,affectionate,unaffectionate,person,cold,Alicia,female,1,e238b5a840566cda00587f69ad95a225,English,TRUE,10,0.5125,0.3769615364994153,0.3382307945367732,neg_positive,unaffectionate--affectionate,unaffectionate,1,first
four_sliders,morphant,the most unaffectionate<br>person in the world,the most affectionate<br>person in the world,0.03,1,38270,3,neg_neg_positive,not not affectionate,affectionate,unaffectionate,person,cold,Monica,female,1,e238b5a840566cda00587f69ad95a225,English,TRUE,10,0.5125,0.3769615364994153,-1.2799714381489644,neg_neg_positive,unaffectionate--affectionate,unaffectionate,1,first
four_sliders,morphant,the most unaffectionate<br>person in the world,the most affectionate<br>person in the world,0.31,1,38270,4,morphant,unaffectionate,affectionate,unaffectionate,person,cold,Kathleen,female,1,e238b5a840566cda00587f69ad95a225,English,TRUE,10,0.5125,0.3769615364994153,-0.5371900854407571,antonym,unaffectionate--affectionate,unaffectionate,1,first
four_sliders,morphant,the most unattractive<br>person in the world,the most attractive<br>person in the world,0.24,1,29409,1,morphant,unattractive,attractive,unattractive,person,ugly,Jackie,female,1,009d5c1ba95b1bb0b841c4edaaac672b,English,TRUE,10,0.44916666666666666,0.16592530148762386,-1.2606074226857327,antonym,unattractive--attractive,unattractive,1,first
four_sliders,morphant,the most unattractive<br>person in the world,the most attractive<br>person in the world,0.67,1,29409,2,positive,attractive,attractive,unattractive,person,ugly,Nicole,female,1,009d5c1ba95b1bb0b841c4edaaac672b,English,TRUE,10,0.44916666666666666,0.16592530148762386,1.3309201872976861,positive,unattractive--attractive,unattractive,1,first
four_sliders,morphant,the most unattractive<br>person in the world,the most attractive<br>person in the world,0.23,1,29409,3,neg_positive,not attractive,attractive,unattractive,person,ugly,Emma,female,1,009d5c1ba95b1bb0b841c4edaaac672b,English,TRUE,10,0.44916666666666666,0.16592530148762386,-1.3208755066388354,neg_positive,unattractive--attractive,unattractive,1,first
four_sliders,morphant,the most unattractive<br>person in the world,the most attractive<br>person in the world,0.5,1,29409,4,neg_neg_positive,not not attractive,attractive,unattractive,person,ugly,Anthony,male,1,009d5c1ba95b1bb0b841c4edaaac672b,English,TRUE,10,0.44916666666666666,0.16592530148762386,0.30636276009493907,neg_neg_positive,unattractive--attractive,unattractive,1,first
four_sliders,morphant,the most unresourceful<br>person in the world,the most resourceful<br>person in the world,0.61,1,24316,1,neg_neg_positive,not not resourceful,resourceful,unresourceful,person,wasteful,Alison,female,1,e5927e80fc20543641b7d15f5da5a2a3,English,TRUE,9,0.46791666666666665,0.25995873922469076,0.5465610956457444,neg_neg_positive,unresourceful--resourceful,unresourceful,1,first
four_sliders,morphant,the most unresourceful<br>person in the world,the most resourceful<br>person in the world,0.26,1,24316,2,morphant,unresourceful,resourceful,unresourceful,person,wasteful,Lee,male,1,e5927e80fc20543641b7d15f5da5a2a3,English,TRUE,9,0.46791666666666665,0.25995873922469076,-0.7998064126898136,antonym,unresourceful--resourceful,unresourceful,1,first
four_sliders,morphant,the most unresourceful<br>person in the world,the most resourceful<br>person in the world,0.24,1,24316,3,neg_positive,not resourceful,resourceful,unresourceful,person,wasteful,Monica,female,1,e5927e80fc20543641b7d15f5da5a2a3,English,TRUE,9,0.46791666666666665,0.25995873922469076,-0.876741698880417,neg_positive,unresourceful--resourceful,unresourceful,1,first
four_sliders,morphant,the most unresourceful<br>person in the world,the most resourceful<br>person in the world,0.89,1,24316,4,positive,resourceful,resourceful,unresourceful,person,wasteful,Anthony,male,1,e5927e80fc20543641b7d15f5da5a2a3,English,TRUE,9,0.46791666666666665,0.25995873922469076,1.623655102314191,positive,unresourceful--resourceful,unresourceful,1,first
four_sliders,morphant,the most unfriendly<br>person in the world,the most friendly<br>person in the world,0.26,1,35272,1,neg_positive,not friendly,friendly,unfriendly,person,mean,Greg,male,1,5241c2fe9605cc466afffb02a089f055,English,TRUE,7,0.48854166666666665,0.2718572026864145,-0.8406680581139061,neg_positive,unfriendly--friendly,unfriendly,1,first
four_sliders,morphant,the most unfriendly<br>person in the world,the most friendly<br>person in the world,0.27,1,35272,2,morphant,unfriendly,friendly,unfriendly,person,mean,Julia,female,1,5241c2fe9605cc466afffb02a089f055,English,TRUE,7,0.48854166666666665,0.2718572026864145,-0.8038840409858591,antonym,unfriendly--friendly,unfriendly,1,first
four_sliders,morphant,the most unfriendly<br>person in the world,the most friendly<br>person in the world,0.75,1,35272,3,positive,friendly,friendly,unfriendly,person,mean,Liam,male,1,5241c2fe9605cc466afffb02a089f055,English,TRUE,7,0.48854166666666665,0.2718572026864145,0.9617487811603941,positive,unfriendly--friendly,unfriendly,1,first
four_sliders,morphant,the most unfriendly<br>person in the world,the most friendly<br>person in the world,0.76,1,35272,4,neg_neg_positive,not not friendly,friendly,unfriendly,person,mean,Veronica,female,1,5241c2fe9605cc466afffb02a089f055,English,TRUE,7,0.48854166666666665,0.2718572026864145,0.998532798288441,neg_neg_positive,unfriendly--friendly,unfriendly,1,first
four_sliders,morphant,the most uninteresting<br>person in the world,the most interesting<br>person in the world,0.35,1,27779,1,neg_positive,not interesting,interesting,uninteresting,person,boring,Dylan,male,1,358d273699fb33216302c04af7b3c9ea,English,TRUE,9,0.3727083333333333,0.2232900945229249,-0.10169879403674979,neg_positive,uninteresting--interesting,uninteresting,1,first
four_sliders,morphant,the most uninteresting<br>person in the world,the most interesting<br>person in the world,0.66,1,27779,2,positive,interesting,interesting,uninteresting,person,boring,Monica,female,1,358d273699fb33216302c04af7b3c9ea,English,TRUE,9,0.3727083333333333,0.2232900945229249,1.2866296970337432,positive,uninteresting--interesting,uninteresting,1,first
four_sliders,morphant,the most uninteresting<br>person in the world,the most interesting<br>person in the world,0.37,1,27779,3,morphant,uninteresting,interesting,uninteresting,person,boring,David,male,1,358d273699fb33216302c04af7b3c9ea,English,TRUE,9,0.3727083333333333,0.2232900945229249,-0.012129213967685664,antonym,uninteresting--interesting,uninteresting,1,first
four_sliders,morphant,the most uninteresting<br>person in the world,the most interesting<br>person in the world,0.38,1,27779,4,neg_neg_positive,not not interesting,interesting,uninteresting,person,boring,Stephanie,female,1,358d273699fb33216302c04af7b3c9ea,English,TRUE,9,0.3727083333333333,0.2232900945229249,0.0326555760668464,neg_neg_positive,uninteresting--interesting,uninteresting,1,first
four_sliders,morphant,the most unaffectionate<br>person in the world,the most affectionate<br>person in the world,0.2,1,56003,1,morphant,unaffectionate,affectionate,unaffectionate,person,cold,Daniel,male,1,cec5155e05e0fece1ea35233e1b580c1,English,TRUE,9,0.431875,0.32301542187015997,-0.7178449829346074,antonym,unaffectionate--affectionate,unaffectionate,1,first
four_sliders,morphant,the most unaffectionate<br>person in the world,the most affectionate<br>person in the world,0.77,1,56003,2,positive,affectionate,affectionate,unaffectionate,person,cold,Eric,male,1,cec5155e05e0fece1ea35233e1b580c1,English,TRUE,9,0.431875,0.32301542187015997,1.0467766462739154,positive,unaffectionate--affectionate,unaffectionate,1,first
four_sliders,morphant,the most unaffectionate<br>person in the world,the most affectionate<br>person in the world,0.65,1,56003,3,neg_neg_positive,not not affectionate,affectionate,unaffectionate,person,cold,Nicole,female,1,cec5155e05e0fece1ea35233e1b580c1,English,TRUE,9,0.431875,0.32301542187015997,0.6752773559142264,neg_neg_positive,unaffectionate--affectionate,unaffectionate,1,first
four_sliders,morphant,the most unaffectionate<br>person in the world,the most affectionate<br>person in the world,0.2,1,56003,4,neg_positive,not affectionate,affectionate,unaffectionate,person,cold,Jackie,female,1,cec5155e05e0fece1ea35233e1b580c1,English,TRUE,9,0.431875,0.32301542187015997,-0.7178449829346074,neg_positive,unaffectionate--affectionate,unaffectionate,1,first
four_sliders,morphant,the most unattractive<br>person in the world,the most attractive<br>person in the world,0.67,1,16619,1,neg_neg_positive,not not attractive,attractive,unattractive,person,ugly,Nicole,female,1,5fef6bbd66bd8c097ccd1fb04e66214e,English,TRUE,10,0.4839583333333333,0.3297177360425018,0.5642452508004764,neg_neg_positive,unattractive--attractive,unattractive,1,first
four_sliders,morphant,the most unattractive<br>person in the world,the most attractive<br>person in the world,0.15,1,16619,2,morphant,unattractive,attractive,unattractive,person,ugly,Daniel,male,1,5fef6bbd66bd8c097ccd1fb04e66214e,English,TRUE,10,0.4839583333333333,0.3297177360425018,-1.012861295669836,antonym,unattractive--attractive,unattractive,1,first
four_sliders,morphant,the most unattractive<br>person in the world,the most attractive<br>person in the world,0.16,1,16619,3,neg_positive,not attractive,attractive,unattractive,person,ugly,Noah,male,1,5fef6bbd66bd8c097ccd1fb04e66214e,English,TRUE,10,0.4839583333333333,0.3297177360425018,-0.9825323236223299,neg_positive,unattractive--attractive,unattractive,1,first
four_sliders,morphant,the most unattractive<br>person in the world,the most attractive<br>person in the world,0.92,1,16619,4,positive,attractive,attractive,unattractive,person,ugly,Anthony,male,1,5fef6bbd66bd8c097ccd1fb04e66214e,English,TRUE,10,0.4839583333333333,0.3297177360425018,1.3224695519881264,positive,unattractive--attractive,unattractive,1,first
four_sliders,morphant,the most unattractive<br>person in the world,the most attractive<br>person in the world,0.77,1,34439,1,positive,attractive,attractive,unattractive,person,ugly,Angela,female,1,8ee832e3c5fa2992a4d585219222de1b,English,TRUE,9,0.5145833333333333,0.13834828595595378,1.8461859856217102,positive,unattractive--attractive,unattractive,1,first
four_sliders,morphant,the most unattractive<br>person in the world,the most attractive<br>person in the world,0.5,1,34439,2,neg_positive,not attractive,attractive,unattractive,person,ugly,Mia,female,1,8ee832e3c5fa2992a4d585219222de1b,English,TRUE,9,0.5145833333333333,0.13834828595595378,-0.10541029281689986,neg_positive,unattractive--attractive,unattractive,1,first
four_sliders,morphant,the most unattractive<br>person in the world,the most attractive<br>person in the world,0.5,1,34439,3,morphant,unattractive,attractive,unattractive,person,ugly,Gabriel,male,1,8ee832e3c5fa2992a4d585219222de1b,English,TRUE,9,0.5145833333333333,0.13834828595595378,-0.10541029281689986,antonym,unattractive--attractive,unattractive,1,first
four_sliders,morphant,the most unattractive<br>person in the world,the most attractive<br>person in the world,0,1,34439,4,neg_neg_positive,not not attractive,attractive,unattractive,person,ugly,Charles,male,1,8ee832e3c5fa2992a4d585219222de1b,English,TRUE,9,0.5145833333333333,0.13834828595595378,-3.719477475110622,neg_neg_positive,unattractive--attractive,unattractive,1,first
four_sliders,morphant,the most unhappy<br>person in the world,the most happy<br>person in the world,0.33,1,22443,1,neg_neg_positive,not not happy,happy,unhappy,person,sad,Eric,male,1,5cb7b89e9ffd253b69016bfbe3741efc,English,TRUE,10,0.3875,0.2774772369425582,-0.20722420560899316,neg_neg_positive,unhappy--happy,unhappy,1,first
four_sliders,morphant,the most unhappy<br>person in the world,the most happy<br>person in the world,0.52,1,22443,2,positive,happy,happy,unhappy,person,sad,Michelle,female,1,5cb7b89e9ffd253b69016bfbe3741efc,English,TRUE,10,0.3875,0.2774772369425582,0.47751664770767993,positive,unhappy--happy,unhappy,1,first
four_sliders,morphant,the most unhappy<br>person in the world,the most happy<br>person in the world,0.22,1,22443,3,morphant,unhappy,happy,unhappy,person,sad,Samuel,male,1,5cb7b89e9ffd253b69016bfbe3741efc,English,TRUE,10,0.3875,0.2774772369425582,-0.6036531206870671,antonym,unhappy--happy,unhappy,1,first
four_sliders,morphant,the most unhappy<br>person in the world,the most happy<br>person in the world,0.28,1,22443,4,neg_positive,not happy,happy,unhappy,person,sad,Kim,female,1,5cb7b89e9ffd253b69016bfbe3741efc,English,TRUE,10,0.3875,0.2774772369425582,-0.3874191670081176,neg_positive,unhappy--happy,unhappy,1,first
four_sliders,morphant,the most irrational<br>person in the world,the most rational<br>person in the world,0.78,1,13125,1,neg_neg_positive,not not rational,rational,irrational,person,crazy,John,male,1,49e86bb63f95c733aa33cb44ba44a330,English,TRUE,8,0.42854166666666665,0.32681564575775246,1.0754024107947604,neg_neg_positive,irrational--rational,irrational,1,first
four_sliders,morphant,the most irrational<br>person in the world,the most rational<br>person in the world,0.18,1,13125,2,morphant,irrational,rational,irrational,person,crazy,Jackie,female,1,49e86bb63f95c733aa33cb44ba44a330,English,TRUE,8,0.42854166666666665,0.32681564575775246,-0.7604950065667747,antonym,irrational--rational,irrational,1,first
four_sliders,morphant,the most irrational<br>person in the world,the most rational<br>person in the world,0.26,1,13125,3,neg_positive,not rational,rational,irrational,person,crazy,Jennifer,female,1,49e86bb63f95c733aa33cb44ba44a330,English,TRUE,8,0.42854166666666665,0.32681564575775246,-0.5157086842519033,neg_positive,irrational--rational,irrational,1,first
four_sliders,morphant,the most irrational<br>person in the world,the most rational<br>person in the world,0.78,1,13125,4,positive,rational,rational,irrational,person,crazy,Laura,female,1,49e86bb63f95c733aa33cb44ba44a330,English,TRUE,8,0.42854166666666665,0.32681564575775246,1.0754024107947604,positive,irrational--rational,irrational,1,first
four_sliders,morphant,the most ungenerous<br>person in the world,the most generous<br>person in the world,0.15,1,19958,1,neg_neg_positive,not not generous,generous,ungenerous,person,stingy,Kim,female,1,0a3f4d267f2d38e19515bf22ae120994,English,TRUE,8,0.4197916666666667,0.2955880513472945,-0.912728594531993,neg_neg_positive,ungenerous--generous,ungenerous,1,first
four_sliders,morphant,the most ungenerous<br>person in the world,the most generous<br>person in the world,0.85,1,19958,2,positive,generous,generous,ungenerous,person,stingy,Tom,male,1,0a3f4d267f2d38e19515bf22ae120994,English,TRUE,8,0.4197916666666667,0.2955880513472945,1.4554320831726373,positive,ungenerous--generous,ungenerous,1,first
four_sliders,morphant,the most ungenerous<br>person in the world,the most generous<br>person in the world,0.19,1,19958,3,morphant,ungenerous,generous,ungenerous,person,stingy,Samuel,male,1,0a3f4d267f2d38e19515bf22ae120994,English,TRUE,8,0.4197916666666667,0.2955880513472945,-0.7774051272345855,antonym,ungenerous--generous,ungenerous,1,first
four_sliders,morphant,the most ungenerous<br>person in the world,the most generous<br>person in the world,0.19,1,19958,4,neg_positive,not generous,generous,ungenerous,person,stingy,Lee,male,1,0a3f4d267f2d38e19515bf22ae120994,English,TRUE,8,0.4197916666666667,0.2955880513472945,-0.7774051272345855,neg_positive,ungenerous--generous,ungenerous,1,first
four_sliders,morphant,the most uninteresting<br>person in the world,the most interesting<br>person in the world,0.29,1,16966,1,morphant,uninteresting,interesting,uninteresting,person,boring,Stephen,male,1,8499a5f05d6ab9af847c8511420a7093,english,TRUE,9,0.3960416666666667,0.3095345825613326,-0.3425842301341406,antonym,uninteresting--interesting,uninteresting,1,first
four_sliders,morphant,the most uninteresting<br>person in the world,the most interesting<br>person in the world,0.81,1,16966,2,positive,interesting,interesting,uninteresting,person,boring,Jackie,female,1,8499a5f05d6ab9af847c8511420a7093,english,TRUE,9,0.3960416666666667,0.3095345825613326,1.3373572991680494,positive,uninteresting--interesting,uninteresting,1,first
four_sliders,morphant,the most uninteresting<br>person in the world,the most interesting<br>person in the world,0.27,1,16966,3,neg_positive,not interesting,interesting,uninteresting,person,boring,Monica,female,1,8499a5f05d6ab9af847c8511420a7093,english,TRUE,9,0.3960416666666667,0.3095345825613326,-0.4071973658765324,neg_positive,uninteresting--interesting,uninteresting,1,first
four_sliders,morphant,the most uninteresting<br>person in the world,the most interesting<br>person in the world,0.28,1,16966,4,neg_neg_positive,not not interesting,interesting,uninteresting,person,boring,Anthony,male,1,8499a5f05d6ab9af847c8511420a7093,english,TRUE,9,0.3960416666666667,0.3095345825613326,-0.37489079800533637,neg_neg_positive,uninteresting--interesting,uninteresting,1,first
four_sliders,morphant,the most unresourceful<br>person in the world,the most resourceful<br>person in the world,0.79,1,5561,1,positive,resourceful,resourceful,unresourceful,person,wasteful,Samuel,male,1,e0287c56d4d93f21b112e2108648eb78,english,TRUE,9,0.2783333333333333,0.3105405947584112,1.6476643482463988,positive,unresourceful--resourceful,unresourceful,1,first
four_sliders,morphant,the most unresourceful<br>person in the world,the most resourceful<br>person in the world,0.13,1,5561,2,neg_neg_positive,not not resourceful,resourceful,unresourceful,person,wasteful,Laura,female,1,e0287c56d4d93f21b112e2108648eb78,english,TRUE,9,0.2783333333333333,0.3105405947584112,-0.47766165144602435,neg_neg_positive,unresourceful--resourceful,unresourceful,1,first
four_sliders,morphant,the most unresourceful<br>person in the world,the most resourceful<br>person in the world,0.12,1,5561,3,morphant,unresourceful,resourceful,unresourceful,person,wasteful,Michael,male,1,e0287c56d4d93f21b112e2108648eb78,english,TRUE,9,0.2783333333333333,0.3105405947584112,-0.5098635605322732,antonym,unresourceful--resourceful,unresourceful,1,first
four_sliders,morphant,the most unresourceful<br>person in the world,the most resourceful<br>person in the world,0.1,1,5561,4,neg_positive,not resourceful,resourceful,unresourceful,person,wasteful,Kim,female,1,e0287c56d4d93f21b112e2108648eb78,english,TRUE,9,0.2783333333333333,0.3105405947584112,-0.5742673787047708,neg_positive,unresourceful--resourceful,unresourceful,1,first
four_sliders,morphant,the most unintelligent<br>person in the world,the most intelligent<br>person in the world,0.24,1,18738,1,morphant,unintelligent,intelligent,unintelligent,person,stupid,Daniel,male,1,a2a518c3f00b452c77a4e8e462f74726,English,TRUE,10,0.4239583333333333,0.23275171305293976,-0.7903629619752431,antonym,unintelligent--intelligent,unintelligent,1,first
four_sliders,morphant,the most unintelligent<br>person in the world,the most intelligent<br>person in the world,0.17,1,18738,2,neg_neg_positive,not not intelligent,intelligent,unintelligent,person,stupid,Kim,female,1,a2a518c3f00b452c77a4e8e462f74726,English,TRUE,10,0.4239583333333333,0.23275171305293976,-1.091112628140228,neg_neg_positive,unintelligent--intelligent,unintelligent,1,first
four_sliders,morphant,the most unintelligent<br>person in the world,the most intelligent<br>person in the world,0.16,1,18738,3,neg_positive,not intelligent,intelligent,unintelligent,person,stupid,Sasha,female,1,a2a518c3f00b452c77a4e8e462f74726,English,TRUE,10,0.4239583333333333,0.23275171305293976,-1.1340768661637972,neg_positive,unintelligent--intelligent,unintelligent,1,first
four_sliders,morphant,the most unintelligent<br>person in the world,the most intelligent<br>person in the world,0.69,1,18738,4,positive,intelligent,intelligent,unintelligent,person,stupid,Mason,male,1,a2a518c3f00b452c77a4e8e462f74726,English,TRUE,10,0.4239583333333333,0.23275171305293976,1.1430277490853742,positive,unintelligent--intelligent,unintelligent,1,first
four_sliders,morphant,the most intolerant<br>person in the world,the most tolerant<br>person in the world,0.55,1,19735,1,neg_neg_positive,not not tolerant,tolerant,intolerant,person,bigoted,Kathleen,female,1,b44c99a12d834a5744e0de5db5bbd9bf,English,TRUE,8,0.42375,0.2878358353039218,0.438618075010342,neg_neg_positive,intolerant--tolerant,intolerant,1,first
four_sliders,morphant,the most intolerant<br>person in the world,the most tolerant<br>person in the world,0.12,1,19735,2,neg_positive,not tolerant,tolerant,intolerant,person,bigoted,Noah,male,1,b44c99a12d834a5744e0de5db5bbd9bf,English,TRUE,8,0.42375,0.2878358353039218,-1.0552890319555752,neg_positive,intolerant--tolerant,intolerant,1,first
four_sliders,morphant,the most intolerant<br>person in the world,the most tolerant<br>person in the world,0.04,1,19735,3,morphant,intolerant,tolerant,intolerant,person,bigoted,Claire,female,1,b44c99a12d834a5744e0de5db5bbd9bf,English,TRUE,8,0.42375,0.2878358353039218,-1.3332252379027225,antonym,intolerant--tolerant,intolerant,1,first
four_sliders,morphant,the most intolerant<br>person in the world,the most tolerant<br>person in the world,0.83,1,19735,4,positive,tolerant,tolerant,intolerant,person,bigoted,Amber,female,1,b44c99a12d834a5744e0de5db5bbd9bf,English,TRUE,8,0.42375,0.2878358353039218,1.4113947958253574,positive,intolerant--tolerant,intolerant,1,first
four_sliders,morphant,the most uninteresting<br>person in the world,the most interesting<br>person in the world,0.96,1,31368,1,neg_positive,not interesting,interesting,uninteresting,person,boring,David,male,1,252fbdf276a530a9da3f03003842df6d,English,TRUE,9,0.625625,0.28369826831831124,1.1786289778294632,neg_positive,uninteresting--interesting,uninteresting,1,first
four_sliders,morphant,the most uninteresting<br>person in the world,the most interesting<br>person in the world,0.91,1,31368,2,positive,interesting,interesting,uninteresting,person,boring,Daniel,male,1,252fbdf276a530a9da3f03003842df6d,English,TRUE,9,0.625625,0.28369826831831124,1.002385392359637,positive,uninteresting--interesting,uninteresting,1,first
four_sliders,morphant,the most uninteresting<br>person in the world,the most interesting<br>person in the world,0.85,1,31368,3,neg_neg_positive,not not interesting,interesting,uninteresting,person,boring,Jacob,male,1,252fbdf276a530a9da3f03003842df6d,English,TRUE,9,0.625625,0.28369826831831124,0.7908930897958455,neg_neg_positive,uninteresting--interesting,uninteresting,1,first
four_sliders,morphant,the most uninteresting<br>person in the world,the most interesting<br>person in the world,0.74,1,31368,4,morphant,uninteresting,interesting,uninteresting,person,boring,Sasha,female,1,252fbdf276a530a9da3f03003842df6d,English,TRUE,9,0.625625,0.28369826831831124,0.40315720176222763,antonym,uninteresting--interesting,uninteresting,1,first
four_sliders,morphant,the most irrational<br>person in the world,the most rational<br>person in the world,0.69,1,31326,1,neg_neg_positive,not not rational,rational,irrational,person,crazy,Charles,male,1,2410fbd6ccfa168aad520419eb2cb3f7,English,TRUE,9,0.4975,0.3412274464528988,0.5641398486583101,neg_neg_positive,irrational--rational,irrational,1,first
four_sliders,morphant,the most irrational<br>person in the world,the most rational<br>person in the world,0.71,1,31326,2,positive,rational,rational,irrational,person,crazy,Alicia,female,1,2410fbd6ccfa168aad520419eb2cb3f7,English,TRUE,9,0.4975,0.3412274464528988,0.6227517809864462,positive,irrational--rational,irrational,1,first
four_sliders,morphant,the most irrational<br>person in the world,the most rational<br>person in the world,0.29,1,31326,3,neg_positive,not rational,rational,irrational,person,crazy,Stephen,male,1,2410fbd6ccfa168aad520419eb2cb3f7,English,TRUE,9,0.4975,0.3412274464528988,-0.6080987979044123,neg_positive,irrational--rational,irrational,1,first
four_sliders,morphant,the most irrational<br>person in the world,the most rational<br>person in the world,0.17,1,31326,4,morphant,irrational,rational,irrational,person,crazy,Greg,male,1,2410fbd6ccfa168aad520419eb2cb3f7,English,TRUE,9,0.4975,0.3412274464528988,-0.9597703918732291,antonym,irrational--rational,irrational,1,first
four_sliders,morphant,the most unresourceful<br>person in the world,the most resourceful<br>person in the world,0.77,1,32159,1,positive,resourceful,resourceful,unresourceful,person,wasteful,Charles,male,1,f53a5ae04758395c5e526e6baf7bac60,English,TRUE,8,0.43979166666666664,0.27567703570334684,1.1978086331741724,positive,unresourceful--resourceful,unresourceful,1,first
four_sliders,morphant,the most unresourceful<br>person in the world,the most resourceful<br>person in the world,0.61,1,32159,2,neg_neg_positive,not not resourceful,resourceful,unresourceful,person,wasteful,Brooke,female,1,f53a5ae04758395c5e526e6baf7bac60,English,TRUE,8,0.43979166666666664,0.27567703570334684,0.6174193396235323,neg_neg_positive,unresourceful--resourceful,unresourceful,1,first
four_sliders,morphant,the most unresourceful<br>person in the world,the most resourceful<br>person in the world,0.16,1,32159,3,morphant,unresourceful,resourceful,unresourceful,person,wasteful,Noah,male,1,f53a5ae04758395c5e526e6baf7bac60,English,TRUE,8,0.43979166666666664,0.27567703570334684,-1.0149255484876423,antonym,unresourceful--resourceful,unresourceful,1,first
four_sliders,morphant,the most unresourceful<br>person in the world,the most resourceful<br>person in the world,0.13,1,32159,4,neg_positive,not resourceful,resourceful,unresourceful,person,wasteful,Kathleen,female,1,f53a5ae04758395c5e526e6baf7bac60,English,TRUE,8,0.43979166666666664,0.27567703570334684,-1.1237485410283872,neg_positive,unresourceful--resourceful,unresourceful,1,first
four_sliders,morphant,the most uninteresting<br>person in the world,the most interesting<br>person in the world,0.53,1,32159,1,neg_neg_positive,not not interesting,interesting,uninteresting,person,boring,Sophia,female,1,92befb2d7237e46192f7c25f09fa49d1,english,TRUE,9,0.47500000000000003,0.21802791154521012,0.2522612798068069,neg_neg_positive,uninteresting--interesting,uninteresting,1,first
four_sliders,morphant,the most uninteresting<br>person in the world,the most interesting<br>person in the world,0.33,1,32159,2,morphant,uninteresting,interesting,uninteresting,person,boring,Dylan,male,1,92befb2d7237e46192f7c25f09fa49d1,english,TRUE,9,0.47500000000000003,0.21802791154521012,-0.6650524649452183,antonym,uninteresting--interesting,uninteresting,1,first
four_sliders,morphant,the most uninteresting<br>person in the world,the most interesting<br>person in the world,0.39,1,32159,3,neg_positive,not interesting,interesting,uninteresting,person,boring,Liam,male,1,92befb2d7237e46192f7c25f09fa49d1,english,TRUE,9,0.47500000000000003,0.21802791154521012,-0.3898583415196108,neg_positive,uninteresting--interesting,uninteresting,1,first
four_sliders,morphant,the most uninteresting<br>person in the world,the most interesting<br>person in the world,0.75,1,32159,4,positive,interesting,interesting,uninteresting,person,boring,Andrew,male,1,92befb2d7237e46192f7c25f09fa49d1,english,TRUE,9,0.47500000000000003,0.21802791154521012,1.2613063990340345,positive,uninteresting--interesting,uninteresting,1,first
four_sliders,morphant,the most unhappy<br>person in the world,the most happy<br>person in the world,0.27,1,46197,1,neg_positive,not happy,happy,unhappy,person,sad,Jennifer,female,1,50904f0b92c957c6f969531301d5b799,english,TRUE,7,0.5472916666666666,0.3374165906913275,-0.821808038835696,neg_positive,unhappy--happy,unhappy,1,first
four_sliders,morphant,the most unhappy<br>person in the world,the most happy<br>person in the world,0.8,1,46197,2,positive,happy,happy,unhappy,person,sad,Jackie,female,1,50904f0b92c957c6f969531301d5b799,english,TRUE,7,0.5472916666666666,0.3374165906913275,0.7489505267525919,positive,unhappy--happy,unhappy,1,first
four_sliders,morphant,the most unhappy<br>person in the world,the most happy<br>person in the world,0.81,1,46197,3,neg_neg_positive,not not happy,happy,unhappy,person,sad,Jeremy,male,1,50904f0b92c957c6f969531301d5b799,english,TRUE,7,0.5472916666666666,0.3374165906913275,0.7785874808202954,neg_neg_positive,unhappy--happy,unhappy,1,first
four_sliders,morphant,the most unhappy<br>person in the world,the most happy<br>person in the world,0.27,1,46197,4,morphant,unhappy,happy,unhappy,person,sad,Julia,female,1,50904f0b92c957c6f969531301d5b799,english,TRUE,7,0.5472916666666666,0.3374165906913275,-0.821808038835696,antonym,unhappy--happy,unhappy,1,first
four_sliders,morphant,the most unresourceful<br>person in the world,the most resourceful<br>person in the world,0.24,1,29051,1,morphant,unresourceful,resourceful,unresourceful,person,wasteful,Daniel,male,1,954f0197c713b578e9090936bdae507a,English,TRUE,9,0.3516666666666667,0.26531661802725137,-0.42088078574556953,antonym,unresourceful--resourceful,unresourceful,1,first
four_sliders,morphant,the most unresourceful<br>person in the world,the most resourceful<br>person in the world,0.07,1,29051,2,neg_neg_positive,not not resourceful,resourceful,unresourceful,person,wasteful,Sasha,female,1,954f0197c713b578e9090936bdae507a,English,TRUE,9,0.3516666666666667,0.26531661802725137,-1.0616246685224064,neg_neg_positive,unresourceful--resourceful,unresourceful,1,first
four_sliders,morphant,the most unresourceful<br>person in the world,the most resourceful<br>person in the world,0.92,1,29051,3,positive,resourceful,resourceful,unresourceful,person,wasteful,Greg,male,1,954f0197c713b578e9090936bdae507a,English,TRUE,9,0.3516666666666667,0.26531661802725137,2.1420947453617787,positive,unresourceful--resourceful,unresourceful,1,first
four_sliders,morphant,the most unresourceful<br>person in the world,the most resourceful<br>person in the world,0.26,1,29051,4,neg_positive,not resourceful,resourceful,unresourceful,person,wasteful,Nicole,female,1,954f0197c713b578e9090936bdae507a,English,TRUE,9,0.3516666666666667,0.26531661802725137,-0.3454991524777063,neg_positive,unresourceful--resourceful,unresourceful,1,first
four_sliders,morphant,the most insincere<br>person in the world,the most sincere<br>person in the world,1,1,22259,1,positive,sincere,sincere,insincere,person,fake,Gabriel,male,1,6249a1797e7ebf5985df10889a472c73,English,TRUE,8,0.39145833333333335,0.39626441625340575,1.5356959689196834,positive,insincere--sincere,insincere,1,first
four_sliders,morphant,the most insincere<br>person in the world,the most sincere<br>person in the world,0.52,1,22259,2,neg_neg_positive,not not sincere,sincere,insincere,person,fake,Lucas,male,1,6249a1797e7ebf5985df10889a472c73,English,TRUE,8,0.39145833333333335,0.39626441625340575,0.32438357166156956,neg_neg_positive,insincere--sincere,insincere,1,first
four_sliders,morphant,the most insincere<br>person in the world,the most sincere<br>person in the world,0.1,1,22259,3,neg_positive,not sincere,sincere,insincere,person,fake,Noah,male,1,6249a1797e7ebf5985df10889a472c73,English,TRUE,8,0.39145833333333335,0.39626441625340575,-0.7355147759392802,neg_positive,insincere--sincere,insincere,1,first
four_sliders,morphant,the most insincere<br>person in the world,the most sincere<br>person in the world,0.01,1,22259,4,morphant,insincere,sincere,insincere,person,fake,Kathleen,female,1,6249a1797e7ebf5985df10889a472c73,English,TRUE,8,0.39145833333333335,0.39626441625340575,-0.9626358504251764,antonym,insincere--sincere,insincere,1,first
four_sliders,morphant,the most insincere<br>person in the world,the most sincere<br>person in the world,0.36,1,11181,1,morphant,insincere,sincere,insincere,person,fake,Michelle,female,1,c1bcc3dc7a15bf3a9ab76c01d5e146da,English,TRUE,8,0.49020833333333336,0.4091687972095735,-0.3182264488918043,antonym,insincere--sincere,insincere,1,first
four_sliders,morphant,the most insincere<br>person in the world,the most sincere<br>person in the world,0.63,1,11181,2,neg_neg_positive,not not sincere,sincere,insincere,person,fake,Jennifer,female,1,c1bcc3dc7a15bf3a9ab76c01d5e146da,English,TRUE,8,0.49020833333333336,0.4091687972095735,0.34164791553024093,neg_neg_positive,insincere--sincere,insincere,1,first
four_sliders,morphant,the most insincere<br>person in the world,the most sincere<br>person in the world,0.53,1,11181,3,neg_positive,not sincere,sincere,insincere,person,fake,Jeremy,male,1,c1bcc3dc7a15bf3a9ab76c01d5e146da,English,TRUE,8,0.49020833333333336,0.4091687972095735,0.09725000278133537,neg_positive,insincere--sincere,insincere,1,first
four_sliders,morphant,the most insincere<br>person in the world,the most sincere<br>person in the world,0.4,1,11181,4,positive,sincere,sincere,insincere,person,fake,Gabriel,male,1,c1bcc3dc7a15bf3a9ab76c01d5e146da,English,TRUE,8,0.49020833333333336,0.4091687972095735,-0.22046728379224195,positive,insincere--sincere,insincere,1,first
four_sliders,morphant,the most unintelligent<br>person in the world,the most intelligent<br>person in the world,0.27,1,30978,1,morphant,unintelligent,intelligent,unintelligent,person,stupid,Jeremy,male,1,43c967d888da00c1ed560b45a828244a,English,TRUE,9,0.4845833333333333,0.24841590326085775,-0.8638067471389004,antonym,unintelligent--intelligent,unintelligent,1,first
four_sliders,morphant,the most unintelligent<br>person in the world,the most intelligent<br>person in the world,0.63,1,30978,2,neg_neg_positive,not not intelligent,intelligent,unintelligent,person,stupid,John,male,1,43c967d888da00c1ed560b45a828244a,English,TRUE,9,0.4845833333333333,0.24841590326085775,0.5853758344688861,neg_neg_positive,unintelligent--intelligent,unintelligent,1,first
four_sliders,morphant,the most unintelligent<br>person in the world,the most intelligent<br>person in the world,0.41,1,30978,3,neg_positive,not intelligent,intelligent,unintelligent,person,stupid,Sophia,female,1,43c967d888da00c1ed560b45a828244a,English,TRUE,9,0.4845833333333333,0.24841590326085775,-0.3002357431803169,neg_positive,unintelligent--intelligent,unintelligent,1,first
four_sliders,morphant,the most unintelligent<br>person in the world,the most intelligent<br>person in the world,0.75,1,30978,4,positive,intelligent,intelligent,unintelligent,person,stupid,Veronica,female,1,43c967d888da00c1ed560b45a828244a,English,TRUE,9,0.4845833333333333,0.24841590326085775,1.068436695004815,positive,unintelligent--intelligent,unintelligent,1,first
four_sliders,morphant,the most immature<br>person in the world,the most mature<br>person in the world,0.2,1,13432,1,neg_positive,not mature,mature,immature,person,childish,Tom,male,1,9f160eda40f23894fe8d0f045fdc1f7a,English,TRUE,9,0.49333333333333335,0.29357903958264725,-0.9991630661042313,neg_positive,immature--mature,immature,1,first
four_sliders,morphant,the most immature<br>person in the world,the most mature<br>person in the world,0.77,1,13432,2,neg_neg_positive,not not mature,mature,immature,person,childish,Amber,female,1,9f160eda40f23894fe8d0f045fdc1f7a,English,TRUE,9,0.49333333333333335,0.29357903958264725,0.9423924373483091,neg_neg_positive,immature--mature,immature,1,first
four_sliders,morphant,the most immature<br>person in the world,the most mature<br>person in the world,0.2,1,13432,3,morphant,immature,mature,immature,person,childish,Sasha,female,1,9f160eda40f23894fe8d0f045fdc1f7a,English,TRUE,9,0.49333333333333335,0.29357903958264725,-0.9991630661042313,antonym,immature--mature,immature,1,first
four_sliders,morphant,the most immature<br>person in the world,the most mature<br>person in the world,0.78,1,13432,4,positive,mature,mature,immature,person,childish,Monica,female,1,9f160eda40f23894fe8d0f045fdc1f7a,English,TRUE,9,0.49333333333333335,0.29357903958264725,0.9764548146018626,positive,immature--mature,immature,1,first
four_sliders,morphant,the most unforgiving<br>person in the world,the most forgiving<br>person in the world,0.81,1,30210,1,positive,forgiving,forgiving,unforgiving,person,resentful,Sophia,female,1,ed1956a712a2e8aedafe8a7b52aa304a,English,TRUE,10,0.4916666666666667,0.3246165222609944,0.9806442725592097,positive,unforgiving--forgiving,unforgiving,1,first
four_sliders,morphant,the most unforgiving<br>person in the world,the most forgiving<br>person in the world,0.81,1,30210,2,neg_neg_positive,not not forgiving,forgiving,unforgiving,person,resentful,Claire,female,1,ed1956a712a2e8aedafe8a7b52aa304a,English,TRUE,10,0.4916666666666667,0.3246165222609944,0.9806442725592097,neg_neg_positive,unforgiving--forgiving,unforgiving,1,first
four_sliders,morphant,the most unforgiving<br>person in the world,the most forgiving<br>person in the world,0.2,1,30210,3,morphant,unforgiving,forgiving,unforgiving,person,resentful,Alison,female,1,ed1956a712a2e8aedafe8a7b52aa304a,English,TRUE,10,0.4916666666666667,0.3246165222609944,-0.8984960612453492,antonym,unforgiving--forgiving,unforgiving,1,first
four_sliders,morphant,the most unforgiving<br>person in the world,the most forgiving<br>person in the world,0.2,1,30210,4,neg_positive,not forgiving,forgiving,unforgiving,person,resentful,Greg,male,1,ed1956a712a2e8aedafe8a7b52aa304a,English,TRUE,10,0.4916666666666667,0.3246165222609944,-0.8984960612453492,neg_positive,unforgiving--forgiving,unforgiving,1,first
four_sliders,morphant,the most uninteresting<br>person in the world,the most interesting<br>person in the world,0.5,1,31351,1,neg_neg_positive,not not interesting,interesting,uninteresting,person,boring,Monica,female,1,2724ec1319f673c043f3719e0ec429d9,English,TRUE,10,0.445625,0.29171471235481994,0.18639786646709244,neg_neg_positive,uninteresting--interesting,uninteresting,1,first
four_sliders,morphant,the most uninteresting<br>person in the world,the most interesting<br>person in the world,0.11,1,31351,2,neg_positive,not interesting,interesting,uninteresting,person,boring,Julia,female,1,2724ec1319f673c043f3719e0ec429d9,English,TRUE,10,0.445625,0.29171471235481994,-1.150524761986536,neg_positive,uninteresting--interesting,uninteresting,1,first
four_sliders,morphant,the most uninteresting<br>person in the world,the most interesting<br>person in the world,0.81,1,31351,3,positive,interesting,interesting,uninteresting,person,boring,Jeremy,male,1,2724ec1319f673c043f3719e0ec429d9,English,TRUE,10,0.445625,0.29171471235481994,1.249079955750746,positive,uninteresting--interesting,uninteresting,1,first
four_sliders,morphant,the most uninteresting<br>person in the world,the most interesting<br>person in the world,0.24,1,31351,4,morphant,uninteresting,interesting,uninteresting,person,boring,Jennifer,female,1,2724ec1319f673c043f3719e0ec429d9,English,TRUE,10,0.445625,0.29171471235481994,-0.7048838858353265,antonym,uninteresting--interesting,uninteresting,1,first
four_sliders,morphant,the most unaffectionate<br>person in the world,the most affectionate<br>person in the world,0.22,1,22335,1,neg_neg_positive,not not affectionate,affectionate,unaffectionate,person,cold,Angela,female,1,2d0aafc6e30bb3baeecd15ed0b3991ba,English,TRUE,8,0.44854166666666667,0.28812666823873595,-0.7931985888834895,neg_neg_positive,unaffectionate--affectionate,unaffectionate,1,first
four_sliders,morphant,the most unaffectionate<br>person in the world,the most affectionate<br>person in the world,0.22,1,22335,2,morphant,unaffectionate,affectionate,unaffectionate,person,cold,Anthony,male,1,2d0aafc6e30bb3baeecd15ed0b3991ba,English,TRUE,8,0.44854166666666667,0.28812666823873595,-0.7931985888834895,antonym,unaffectionate--affectionate,unaffectionate,1,first
four_sliders,morphant,the most unaffectionate<br>person in the world,the most affectionate<br>person in the world,0.83,1,22335,3,positive,affectionate,affectionate,unaffectionate,person,cold,Michelle,female,1,2d0aafc6e30bb3baeecd15ed0b3991ba,English,TRUE,8,0.44854166666666667,0.28812666823873595,1.3239258124390783,positive,unaffectionate--affectionate,unaffectionate,1,first
four_sliders,morphant,the most unaffectionate<br>person in the world,the most affectionate<br>person in the world,0.22,1,22335,4,neg_positive,not affectionate,affectionate,unaffectionate,person,cold,Veronica,female,1,2d0aafc6e30bb3baeecd15ed0b3991ba,English,TRUE,8,0.44854166666666667,0.28812666823873595,-0.7931985888834895,neg_positive,unaffectionate--affectionate,unaffectionate,1,first
four_sliders,morphant,the most ungenerous<br>person in the world,the most generous<br>person in the world,0.16,1,14550,1,morphant,ungenerous,generous,ungenerous,person,stingy,Tom,male,1,d5f862406fe50c980c06e4e7cce57507,English,TRUE,9,0.45708333333333334,0.3298610818713437,-0.9006316587817573,antonym,ungenerous--generous,ungenerous,1,first
four_sliders,morphant,the most ungenerous<br>person in the world,the most generous<br>person in the world,0.87,1,14550,2,positive,generous,generous,ungenerous,person,stingy,Charles,male,1,d5f862406fe50c980c06e4e7cce57507,English,TRUE,9,0.45708333333333334,0.3298610818713437,1.251789584646173,positive,ungenerous--generous,ungenerous,1,first
four_sliders,morphant,the most ungenerous<br>person in the world,the most generous<br>person in the world,0.23,1,14550,3,neg_positive,not generous,generous,ungenerous,person,stingy,Veronica,female,1,d5f862406fe50c980c06e4e7cce57507,English,TRUE,9,0.45708333333333334,0.3298610818713437,-0.6884211136550599,neg_positive,ungenerous--generous,ungenerous,1,first
four_sliders,morphant,the most ungenerous<br>person in the world,the most generous<br>person in the world,0.86,1,14550,4,neg_neg_positive,not not generous,generous,ungenerous,person,stingy,Liam,male,1,d5f862406fe50c980c06e4e7cce57507,English,TRUE,9,0.45708333333333334,0.3298610818713437,1.2214737924852164,neg_neg_positive,ungenerous--generous,ungenerous,1,first
four_sliders,morphant,the most irrational<br>person in the world,the most rational<br>person in the world,0.2,1,21322,1,neg_neg_positive,not not rational,rational,irrational,person,crazy,Stephanie,female,1,09a4ba48d832cf47cb6d5cd5379f80cf,english,TRUE,9,0.4866666666666667,0.29577401762755656,-0.9692084144714902,neg_neg_positive,irrational--rational,irrational,1,first
four_sliders,morphant,the most irrational<br>person in the world,the most rational<br>person in the world,0.73,1,21322,2,positive,rational,rational,irrational,person,crazy,Noah,male,1,09a4ba48d832cf47cb6d5cd5379f80cf,english,TRUE,9,0.4866666666666667,0.29577401762755656,0.8227001657723112,positive,irrational--rational,irrational,1,first
four_sliders,morphant,the most irrational<br>person in the world,the most rational<br>person in the world,0.14,1,21322,3,neg_positive,not rational,rational,irrational,person,crazy,Daniel,male,1,09a4ba48d832cf47cb6d5cd5379f80cf,english,TRUE,9,0.4866666666666667,0.29577401762755656,-1.17206598959343,neg_positive,irrational--rational,irrational,1,first
four_sliders,morphant,the most irrational<br>person in the world,the most rational<br>person in the world,0.2,1,21322,4,morphant,irrational,rational,irrational,person,crazy,Brooke,female,1,09a4ba48d832cf47cb6d5cd5379f80cf,english,TRUE,9,0.4866666666666667,0.29577401762755656,-0.9692084144714902,antonym,irrational--rational,irrational,1,first
four_sliders,morphant,the most unaffectionate<br>person in the world,the most affectionate<br>person in the world,0.06,1,60674,1,morphant,unaffectionate,affectionate,unaffectionate,person,cold,Monica,female,1,aa551db304442bea38b6775a560aa6f4,English,TRUE,9,0.2941666666666667,0.3974751876818163,-0.5891353068662992,antonym,unaffectionate--affectionate,unaffectionate,1,first
four_sliders,morphant,the most unaffectionate<br>person in the world,the most affectionate<br>person in the world,0.19,1,60674,2,neg_neg_positive,not not affectionate,affectionate,unaffectionate,person,cold,Jacob,male,1,aa551db304442bea38b6775a560aa6f4,English,TRUE,9,0.2941666666666667,0.3974751876818163,-0.2620708660437274,neg_neg_positive,unaffectionate--affectionate,unaffectionate,1,first
four_sliders,morphant,the most unaffectionate<br>person in the world,the most affectionate<br>person in the world,0.99,1,60674,3,positive,affectionate,affectionate,unaffectionate,person,cold,Jackie,female,1,aa551db304442bea38b6775a560aa6f4,English,TRUE,9,0.2941666666666667,0.3974751876818163,1.7506333851720988,positive,unaffectionate--affectionate,unaffectionate,1,first
four_sliders,morphant,the most unaffectionate<br>person in the world,the most affectionate<br>person in the world,0.19,1,60674,4,neg_positive,not affectionate,affectionate,unaffectionate,person,cold,Laura,female,1,aa551db304442bea38b6775a560aa6f4,English,TRUE,9,0.2941666666666667,0.3974751876818163,-0.2620708660437274,neg_positive,unaffectionate--affectionate,unaffectionate,1,first
four_sliders,morphant,the most irrational<br>person in the world,the most rational<br>person in the world,0.25,1,15967,1,neg_positive,not rational,rational,irrational,person,crazy,Tom,male,1,5da882c61281020ce230c36cc0afa54a,English,TRUE,9,0.4916666666666667,0.32520588132478007,-0.7431189918281843,neg_positive,irrational--rational,irrational,1,first
four_sliders,morphant,the most irrational<br>person in the world,the most rational<br>person in the world,0.81,1,15967,2,positive,rational,rational,irrational,person,crazy,Nicole,female,1,5da882c61281020ce230c36cc0afa54a,English,TRUE,9,0.4916666666666667,0.32520588132478007,0.9788670857874703,positive,irrational--rational,irrational,1,first
four_sliders,morphant,the most irrational<br>person in the world,the most rational<br>person in the world,0.79,1,15967,3,neg_neg_positive,not not rational,rational,irrational,person,crazy,Samuel,male,1,5da882c61281020ce230c36cc0afa54a,English,TRUE,9,0.4916666666666667,0.32520588132478007,0.9173675830154825,neg_neg_positive,irrational--rational,irrational,1,first
four_sliders,morphant,the most irrational<br>person in the world,the most rational<br>person in the world,0.25,1,15967,4,morphant,irrational,rational,irrational,person,crazy,Emma,female,1,5da882c61281020ce230c36cc0afa54a,English,TRUE,9,0.4916666666666667,0.32520588132478007,-0.7431189918281843,antonym,irrational--rational,irrational,1,first
four_sliders,morphant,the most unhappy<br>person in the world,the most happy<br>person in the world,0.13,1,66532,1,morphant,unhappy,happy,unhappy,person,sad,Monica,female,1,91258cf2cf3f7190fa4f32d2122ed0f3,english,TRUE,10,0.48604166666666665,0.3022943442530407,-1.177797975501109,antonym,unhappy--happy,unhappy,1,first
four_sliders,morphant,the most unhappy<br>person in the world,the most happy<br>person in the world,0.87,1,66532,2,positive,happy,happy,unhappy,person,sad,Michelle,female,1,91258cf2cf3f7190fa4f32d2122ed0f3,english,TRUE,10,0.48604166666666665,0.3022943442530407,1.2701472608827058,positive,unhappy--happy,unhappy,1,first
four_sliders,morphant,the most unhappy<br>person in the world,the most happy<br>person in the world,0.33,1,66532,3,neg_positive,not happy,happy,unhappy,person,sad,Sasha,female,1,91258cf2cf3f7190fa4f32d2122ed0f3,english,TRUE,10,0.48604166666666665,0.3022943442530407,-0.5161911548568348,neg_positive,unhappy--happy,unhappy,1,first
four_sliders,morphant,the most unhappy<br>person in the world,the most happy<br>person in the world,0.69,1,66532,4,neg_neg_positive,not not happy,happy,unhappy,person,sad,Kathleen,female,1,91258cf2cf3f7190fa4f32d2122ed0f3,english,TRUE,10,0.48604166666666665,0.3022943442530407,0.6747011223028587,neg_neg_positive,unhappy--happy,unhappy,1,first
four_sliders,morphant,the most immature<br>person in the world,the most mature<br>person in the world,0.71,1,31930,1,positive,mature,mature,immature,person,childish,Samuel,male,1,785e2a784e69d43768dd31dad56d6f36,English,TRUE,10,0.39166666666666666,0.21672939626565138,1.468805518856072,positive,immature--mature,immature,1,first
four_sliders,morphant,the most immature<br>person in the world,the most mature<br>person in the world,0.37,1,31930,2,neg_neg_positive,not not mature,mature,immature,person,childish,Alexander,male,1,785e2a784e69d43768dd31dad56d6f36,English,TRUE,10,0.39166666666666666,0.21672939626565138,-0.09997105625721957,neg_neg_positive,immature--mature,immature,1,first
four_sliders,morphant,the most immature<br>person in the world,the most mature<br>person in the world,0.22,1,31930,3,morphant,immature,mature,immature,person,childish,Alicia,female,1,785e2a784e69d43768dd31dad56d6f36,English,TRUE,10,0.39166666666666666,0.21672939626565138,-0.7920783688072012,antonym,immature--mature,immature,1,first
four_sliders,morphant,the most immature<br>person in the world,the most mature<br>person in the world,0.26,1,31930,4,neg_positive,not mature,mature,immature,person,childish,Kim,female,1,785e2a784e69d43768dd31dad56d6f36,English,TRUE,10,0.39166666666666666,0.21672939626565138,-0.6075164187938727,neg_positive,immature--mature,immature,1,first
four_sliders,morphant,the most intolerant<br>person in the world,the most tolerant<br>person in the world,0.07,1,21081,1,neg_positive,not tolerant,tolerant,intolerant,person,bigoted,Charles,male,1,a9f8dd9cf3929d0f34d7e5407c4e356d,English,TRUE,10,0.4225,0.3397151497633325,-1.0376340302914786,neg_positive,intolerant--tolerant,intolerant,1,first
four_sliders,morphant,the most intolerant<br>person in the world,the most tolerant<br>person in the world,0.82,1,21081,2,positive,tolerant,tolerant,intolerant,person,bigoted,Michael,male,1,a9f8dd9cf3929d0f34d7e5407c4e356d,English,TRUE,10,0.4225,0.3397151497633325,1.1700979490520929,positive,intolerant--tolerant,intolerant,1,first
four_sliders,morphant,the most intolerant<br>person in the world,the most tolerant<br>person in the world,0.03,1,21081,3,morphant,intolerant,tolerant,intolerant,person,bigoted,Daniel,male,1,a9f8dd9cf3929d0f34d7e5407c4e356d,English,TRUE,10,0.4225,0.3397151497633325,-1.155379735856469,antonym,intolerant--tolerant,intolerant,1,first
four_sliders,morphant,the most intolerant<br>person in the world,the most tolerant<br>person in the world,0.09,1,21081,4,neg_neg_positive,not not tolerant,tolerant,intolerant,person,bigoted,Stephanie,female,1,a9f8dd9cf3929d0f34d7e5407c4e356d,English,TRUE,10,0.4225,0.3397151497633325,-0.9787611775089836,neg_neg_positive,intolerant--tolerant,intolerant,1,first
four_sliders,morphant,the most unkind<br>person in the world,the most kind<br>person in the world,0.18,1,16325,1,neg_positive,not kind,kind,unkind,person,cruel,Alexander,male,1,0bbae9c15ba60b609d9f75a95e165805,English,TRUE,10,0.4535416666666667,0.39460990477984026,-0.6931951361415531,neg_positive,unkind--kind,unkind,1,first
four_sliders,morphant,the most unkind<br>person in the world,the most kind<br>person in the world,0.66,1,16325,2,neg_neg_positive,not not kind,kind,unkind,person,cruel,Lee,male,1,0bbae9c15ba60b609d9f75a95e165805,English,TRUE,10,0.4535416666666667,0.39460990477984026,0.5231960243079049,neg_neg_positive,unkind--kind,unkind,1,first
four_sliders,morphant,the most unkind<br>person in the world,the most kind<br>person in the world,0.94,1,16325,3,positive,kind,kind,unkind,person,cruel,Jeremy,male,1,0bbae9c15ba60b609d9f75a95e165805,English,TRUE,10,0.4535416666666667,0.39460990477984026,1.2327575345700885,positive,unkind--kind,unkind,1,first
four_sliders,morphant,the most unkind<br>person in the world,the most kind<br>person in the world,0.04,1,16325,4,morphant,unkind,kind,unkind,person,cruel,Kim,female,1,0bbae9c15ba60b609d9f75a95e165805,English,TRUE,10,0.4535416666666667,0.39460990477984026,-1.0479758912726451,antonym,unkind--kind,unkind,1,first
four_sliders,morphant,the most unattractive<br>person in the world,the most attractive<br>person in the world,0.81,1,23294,1,positive,attractive,attractive,unattractive,person,ugly,Liam,male,1,8443c238fbce90b2be1961a728a8e930,English,TRUE,9,0.42875,0.2612541356691896,1.459307042253884,positive,unattractive--attractive,unattractive,1,first
four_sliders,morphant,the most unattractive<br>person in the world,the most attractive<br>person in the world,0.25,1,23294,2,morphant,unattractive,attractive,unattractive,person,ugly,Stephanie,female,1,8443c238fbce90b2be1961a728a8e930,English,TRUE,9,0.42875,0.2612541356691896,-0.6841996952206736,antonym,unattractive--attractive,unattractive,1,first
four_sliders,morphant,the most unattractive<br>person in the world,the most attractive<br>person in the world,0.64,1,23294,3,neg_neg_positive,not not attractive,attractive,unattractive,person,ugly,Samuel,male,1,8443c238fbce90b2be1961a728a8e930,English,TRUE,9,0.42875,0.2612541356691896,0.8085996398062505,neg_neg_positive,unattractive--attractive,unattractive,1,first
four_sliders,morphant,the most unattractive<br>person in the world,the most attractive<br>person in the world,0.41,1,23294,4,neg_positive,not attractive,attractive,unattractive,person,ugly,Nicole,female,1,8443c238fbce90b2be1961a728a8e930,English,TRUE,9,0.42875,0.2612541356691896,-0.07176919879937152,neg_positive,unattractive--attractive,unattractive,1,first
four_sliders,morphant,the most immature<br>person in the world,the most mature<br>person in the world,0.77,1,35655,1,positive,mature,mature,immature,person,childish,Mason,male,1,1fc589c642f515c7a68ffbc86fad992e,English,TRUE,10,0.40875,0.27585553573518273,1.3095622643106744,positive,immature--mature,immature,1,first
four_sliders,morphant,the most immature<br>person in the world,the most mature<br>person in the world,0.26,1,35655,2,neg_positive,not mature,mature,immature,person,childish,Diana,female,1,1fc589c642f515c7a68ffbc86fad992e,English,TRUE,10,0.40875,0.27585553573518273,-0.5392315205985129,neg_positive,immature--mature,immature,1,first
four_sliders,morphant,the most immature<br>person in the world,the most mature<br>person in the world,0.18,1,35655,3,morphant,immature,mature,immature,person,childish,Melinda,female,1,1fc589c642f515c7a68ffbc86fad992e,English,TRUE,10,0.40875,0.27585553573518273,-0.8292383888195619,antonym,immature--mature,immature,1,first
four_sliders,morphant,the most immature<br>person in the world,the most mature<br>person in the world,0.5,1,35655,4,neg_neg_positive,not not mature,mature,immature,person,childish,Alicia,female,1,1fc589c642f515c7a68ffbc86fad992e,English,TRUE,10,0.40875,0.27585553573518273,0.330789084064634,neg_neg_positive,immature--mature,immature,1,first
four_sliders,morphant,the most unforgiving<br>person in the world,the most forgiving<br>person in the world,0.7,1,55509,1,neg_neg_positive,not not forgiving,forgiving,unforgiving,person,resentful,Anthony,male,1,58923ee6bf3c73f8b6643b58675abc0a,English,TRUE,10,0.485,0.2829931207343718,0.7597357824178604,neg_neg_positive,unforgiving--forgiving,unforgiving,1,first
four_sliders,morphant,the most unforgiving<br>person in the world,the most forgiving<br>person in the world,0.87,1,55509,2,positive,forgiving,forgiving,unforgiving,person,resentful,Alicia,female,1,58923ee6bf3c73f8b6643b58675abc0a,English,TRUE,10,0.485,0.2829931207343718,1.3604570987482618,positive,unforgiving--forgiving,unforgiving,1,first
four_sliders,morphant,the most unforgiving<br>person in the world,the most forgiving<br>person in the world,0.29,1,55509,3,morphant,unforgiving,forgiving,unforgiving,person,resentful,Jeremy,male,1,58923ee6bf3c73f8b6643b58675abc0a,English,TRUE,10,0.485,0.2829931207343718,-0.6890626863789898,antonym,unforgiving--forgiving,unforgiving,1,first
four_sliders,morphant,the most unforgiving<br>person in the world,the most forgiving<br>person in the world,0.35,1,55509,4,neg_positive,not forgiving,forgiving,unforgiving,person,resentful,Liam,male,1,58923ee6bf3c73f8b6643b58675abc0a,English,TRUE,10,0.485,0.2829931207343718,-0.47704339826237757,neg_positive,unforgiving--forgiving,unforgiving,1,first
four_sliders,morphant,the most unpatriotic<br>person in the world,the most patriotic<br>person in the world,0.85,1,41813,1,positive,patriotic,patriotic,unpatriotic,person,traitorous,Daniel,male,1,5a6106decf3869e25ff473fe22a716fa,english,TRUE,9,0.361875,0.28721447431374203,1.6995139300214759,positive,unpatriotic--patriotic,unpatriotic,1,first
four_sliders,morphant,the most unpatriotic<br>person in the world,the most patriotic<br>person in the world,0.26,1,41813,2,morphant,unpatriotic,patriotic,unpatriotic,person,traitorous,Jennifer,female,1,5a6106decf3869e25ff473fe22a716fa,english,TRUE,9,0.361875,0.28721447431374203,-0.3547000903886051,antonym,unpatriotic--patriotic,unpatriotic,1,first
four_sliders,morphant,the most unpatriotic<br>person in the world,the most patriotic<br>person in the world,0.07,1,41813,3,neg_neg_positive,not not patriotic,patriotic,unpatriotic,person,traitorous,Lee,male,1,5a6106decf3869e25ff473fe22a716fa,english,TRUE,9,0.361875,0.28721447431374203,-1.0162266393342245,neg_neg_positive,unpatriotic--patriotic,unpatriotic,1,first
four_sliders,morphant,the most unpatriotic<br>person in the world,the most patriotic<br>person in the world,0.2,1,41813,4,neg_positive,not patriotic,patriotic,unpatriotic,person,traitorous,Dylan,male,1,5a6106decf3869e25ff473fe22a716fa,english,TRUE,9,0.361875,0.28721447431374203,-0.5636032111082744,neg_positive,unpatriotic--patriotic,unpatriotic,1,first
four_sliders,morphant,the most unambitious<br>person in the world,the most ambitious<br>person in the world,0.35,1,16037,1,morphant,unambitious,ambitious,unambitious,person,lazy,Lee,male,1,754fcea9fcbbcab203b5655a4e3f49ea,english,TRUE,8,0.53875,0.20550534496336254,-0.9184675952523293,antonym,unambitious--ambitious,unambitious,1,first
four_sliders,morphant,the most unambitious<br>person in the world,the most ambitious<br>person in the world,0.49,1,16037,2,positive,ambitious,ambitious,unambitious,person,lazy,Eric,male,1,754fcea9fcbbcab203b5655a4e3f49ea,english,TRUE,8,0.53875,0.20550534496336254,-0.23722010738305177,positive,unambitious--ambitious,unambitious,1,first
four_sliders,morphant,the most unambitious<br>person in the world,the most ambitious<br>person in the world,0.29,1,16037,3,neg_positive,not ambitious,ambitious,unambitious,person,lazy,Maya,female,1,754fcea9fcbbcab203b5655a4e3f49ea,english,TRUE,8,0.53875,0.20550534496336254,-1.2104308043391625,neg_positive,unambitious--ambitious,unambitious,1,first
four_sliders,morphant,the most unambitious<br>person in the world,the most ambitious<br>person in the world,0.39,1,16037,4,neg_neg_positive,not not ambitious,ambitious,unambitious,person,lazy,Sasha,female,1,754fcea9fcbbcab203b5655a4e3f49ea,english,TRUE,8,0.53875,0.20550534496336254,-0.723825455861107,neg_neg_positive,unambitious--ambitious,unambitious,1,first
four_sliders,morphant,the most ungenerous<br>person in the world,the most generous<br>person in the world,0.68,1,8971,1,neg_neg_positive,not not generous,generous,ungenerous,person,stingy,Michael,male,1,cd417dddbeedeb7b38098a383408aeb6,english,TRUE,8,0.703125,0.09691312736321715,-0.23861576474908927,neg_neg_positive,ungenerous--generous,ungenerous,1,first
four_sliders,morphant,the most ungenerous<br>person in the world,the most generous<br>person in the world,0.57,1,8971,2,neg_positive,not generous,generous,ungenerous,person,stingy,Alison,female,1,cd417dddbeedeb7b38098a383408aeb6,english,TRUE,8,0.703125,0.09691312736321715,-1.3736529159880038,neg_positive,ungenerous--generous,ungenerous,1,first
four_sliders,morphant,the most ungenerous<br>person in the world,the most generous<br>person in the world,0.76,1,8971,3,morphant,ungenerous,generous,ungenerous,person,stingy,Kim,female,1,cd417dddbeedeb7b38098a383408aeb6,english,TRUE,8,0.703125,0.09691312736321715,0.586865799788302,antonym,ungenerous--generous,ungenerous,1,first
four_sliders,morphant,the most ungenerous<br>person in the world,the most generous<br>person in the world,0.62,1,8971,4,positive,generous,generous,ungenerous,person,stingy,Liam,male,1,cd417dddbeedeb7b38098a383408aeb6,english,TRUE,8,0.703125,0.09691312736321715,-0.8577269381521336,positive,ungenerous--generous,ungenerous,1,first
four_sliders,morphant,the most irrational<br>person in the world,the most rational<br>person in the world,0.18,1,18959,1,neg_positive,not rational,rational,irrational,person,crazy,Kim,female,1,8c6589e45f2e1280823a3f3bde594f18,English,TRUE,7,0.41583333333333333,0.28928991078547744,-0.815214511605333,neg_positive,irrational--rational,irrational,1,first
four_sliders,morphant,the most irrational<br>person in the world,the most rational<br>person in the world,0.5,1,18959,2,neg_neg_positive,not not rational,rational,irrational,person,crazy,Daniel,male,1,8c6589e45f2e1280823a3f3bde594f18,English,TRUE,7,0.41583333333333333,0.28928991078547744,0.29094228152699164,neg_neg_positive,irrational--rational,irrational,1,first
four_sliders,morphant,the most irrational<br>person in the world,the most rational<br>person in the world,0.86,1,18959,3,positive,rational,rational,irrational,person,crazy,Alison,female,1,8c6589e45f2e1280823a3f3bde594f18,English,TRUE,7,0.41583333333333333,0.28928991078547744,1.5353686738008567,positive,irrational--rational,irrational,1,first
four_sliders,morphant,the most irrational<br>person in the world,the most rational<br>person in the world,0.09,1,18959,4,morphant,irrational,rational,irrational,person,crazy,Veronica,female,1,8c6589e45f2e1280823a3f3bde594f18,English,TRUE,7,0.41583333333333333,0.28928991078547744,-1.126321109673799,antonym,irrational--rational,irrational,1,first
four_sliders,morphant,the most dishonest<br>person in the world,the most honest<br>person in the world,0.58,1,33650,1,positive,honest,honest,dishonest,person,deceitful,Daniel,male,1,e169d76346686fa287072636ec66a426,english,TRUE,10,0.40208333333333335,0.28417074829122924,0.6260907138982886,positive,dishonest--honest,dishonest,1,first
four_sliders,morphant,the most dishonest<br>person in the world,the most honest<br>person in the world,0.3,1,33650,2,neg_neg_positive,not not honest,honest,dishonest,person,deceitful,Noah,male,1,e169d76346686fa287072636ec66a426,english,TRUE,10,0.40208333333333335,0.28417074829122924,-0.35923237682688713,neg_neg_positive,dishonest--honest,dishonest,1,first
four_sliders,morphant,the most dishonest<br>person in the world,the most honest<br>person in the world,0.28,1,33650,3,neg_positive,not honest,honest,dishonest,person,deceitful,Gabriel,male,1,e169d76346686fa287072636ec66a426,english,TRUE,10,0.40208333333333335,0.28417074829122924,-0.429612597592971,neg_positive,dishonest--honest,dishonest,1,first
four_sliders,morphant,the most dishonest<br>person in the world,the most honest<br>person in the world,0.21,1,33650,4,morphant,dishonest,honest,dishonest,person,deceitful,Amber,female,1,e169d76346686fa287072636ec66a426,english,TRUE,10,0.40208333333333335,0.28417074829122924,-0.6759433702742651,antonym,dishonest--honest,dishonest,1,first
four_sliders,morphant,the most uneducated<br>person in the world,the most educated<br>person in the world,0.49,1,29622,1,morphant,uneducated,educated,uneducated,person,ignorant,Mia,female,1,c6c7adfa513fe4ac57defb59c772e35a,English,TRUE,9,0.42625,0.12391872765578973,0.5144500851967991,antonym,uneducated--educated,uneducated,1,first
four_sliders,morphant,the most uneducated<br>person in the world,the most educated<br>person in the world,0.49,1,29622,2,positive,educated,educated,uneducated,person,ignorant,Lee,male,1,c6c7adfa513fe4ac57defb59c772e35a,English,TRUE,9,0.42625,0.12391872765578973,0.5144500851967991,positive,uneducated--educated,uneducated,1,first
four_sliders,morphant,the most uneducated<br>person in the world,the most educated<br>person in the world,0.49,1,29622,3,neg_positive,not educated,educated,uneducated,person,ignorant,Daniel,male,1,c6c7adfa513fe4ac57defb59c772e35a,English,TRUE,9,0.42625,0.12391872765578973,0.5144500851967991,neg_positive,uneducated--educated,uneducated,1,first
four_sliders,morphant,the most uneducated<br>person in the world,the most educated<br>person in the world,0.49,1,29622,4,neg_neg_positive,not not educated,educated,uneducated,person,ignorant,Kathleen,female,1,c6c7adfa513fe4ac57defb59c772e35a,English,TRUE,9,0.42625,0.12391872765578973,0.5144500851967991,neg_neg_positive,uneducated--educated,uneducated,1,first
four_sliders,morphant,the most uneducated<br>person in the world,the most educated<br>person in the world,0.26,1,20130,1,neg_positive,not educated,educated,uneducated,person,ignorant,Jennifer,female,1,444dbd40192748d10b54a6c5f900118a,English,TRUE,10,0.3983333333333333,0.25235346144554094,-0.5481729180211237,neg_positive,uneducated--educated,uneducated,1,first
four_sliders,morphant,the most uneducated<br>person in the world,the most educated<br>person in the world,0.27,1,20130,2,neg_neg_positive,not not educated,educated,uneducated,person,ignorant,Sasha,female,1,444dbd40192748d10b54a6c5f900118a,English,TRUE,10,0.3983333333333333,0.25235346144554094,-0.5085459600918858,neg_neg_positive,uneducated--educated,uneducated,1,first
four_sliders,morphant,the most uneducated<br>person in the world,the most educated<br>person in the world,0.84,1,20130,3,positive,educated,educated,uneducated,person,ignorant,Brooke,female,1,444dbd40192748d10b54a6c5f900118a,English,TRUE,10,0.3983333333333333,0.25235346144554094,1.7501906418746722,positive,uneducated--educated,uneducated,1,first
four_sliders,morphant,the most uneducated<br>person in the world,the most educated<br>person in the world,0.21,1,20130,4,morphant,uneducated,educated,uneducated,person,ignorant,Lucas,male,1,444dbd40192748d10b54a6c5f900118a,English,TRUE,10,0.3983333333333333,0.25235346144554094,-0.746307707667313,antonym,uneducated--educated,uneducated,1,first
four_sliders,morphant,the most uninteresting<br>person in the world,the most interesting<br>person in the world,0.55,1,9795,1,positive,interesting,interesting,uninteresting,person,boring,Cameron,male,1,c20971b8d10251d9d069b5a25a7c3163,ENGLISH,TRUE,9,0.51125,0.14926237074074944,0.25960997274593806,positive,uninteresting--interesting,uninteresting,1,first
four_sliders,morphant,the most uninteresting<br>person in the world,the most interesting<br>person in the world,0.42,1,9795,2,morphant,uninteresting,interesting,uninteresting,person,boring,Sasha,female,1,c20971b8d10251d9d069b5a25a7c3163,ENGLISH,TRUE,9,0.51125,0.14926237074074944,-0.6113396132404337,antonym,uninteresting--interesting,uninteresting,1,first
four_sliders,morphant,the most uninteresting<br>person in the world,the most interesting<br>person in the world,0.57,1,9795,3,neg_positive,not interesting,interesting,uninteresting,person,boring,Melinda,female,1,c20971b8d10251d9d069b5a25a7c3163,ENGLISH,TRUE,9,0.51125,0.14926237074074944,0.3936022167438407,neg_positive,uninteresting--interesting,uninteresting,1,first
four_sliders,morphant,the most uninteresting<br>person in the world,the most interesting<br>person in the world,0.75,1,9795,4,neg_neg_positive,not not interesting,interesting,uninteresting,person,boring,Eric,male,1,c20971b8d10251d9d069b5a25a7c3163,ENGLISH,TRUE,9,0.51125,0.14926237074074944,1.5995324127249706,neg_neg_positive,uninteresting--interesting,uninteresting,1,first
four_sliders,morphant,the most impolite<br>person in the world,the most polite<br>person in the world,0.31,1,16500,1,morphant,impolite,polite,impolite,person,rude,Daniel,male,1,1c3547ef1d686e01f3b30497f4c0d718,English,TRUE,7,0.3958333333333333,0.25809311640876564,-0.3325673095340955,antonym,impolite--polite,impolite,1,first
four_sliders,morphant,the most impolite<br>person in the world,the most polite<br>person in the world,0.18,1,16500,2,neg_positive,not polite,polite,impolite,person,rude,Andrew,male,1,1c3547ef1d686e01f3b30497f4c0d718,English,TRUE,7,0.3958333333333333,0.25809311640876564,-0.8362614870808811,neg_positive,impolite--polite,impolite,1,first
four_sliders,morphant,the most impolite<br>person in the world,the most polite<br>person in the world,0.61,1,16500,3,positive,polite,polite,impolite,person,rude,Stephanie,female,1,1c3547ef1d686e01f3b30497f4c0d718,English,TRUE,7,0.3958333333333333,0.25809311640876564,0.8298038694200249,positive,impolite--polite,impolite,1,first
four_sliders,morphant,the most impolite<br>person in the world,the most polite<br>person in the world,0.51,1,16500,4,neg_neg_positive,not not polite,polite,impolite,person,rude,Lee,male,1,1c3547ef1d686e01f3b30497f4c0d718,English,TRUE,7,0.3958333333333333,0.25809311640876564,0.44234680976865154,neg_neg_positive,impolite--polite,impolite,1,first
four_sliders,morphant,the most unresourceful<br>person in the world,the most resourceful<br>person in the world,0.22,1,30677,1,morphant,unresourceful,resourceful,unresourceful,person,wasteful,Andrew,male,1,e2721c414652581d0dc13f04024cf9ac,English,TRUE,8,0.4875,0.31927111136648667,-0.8378459261631742,antonym,unresourceful--resourceful,unresourceful,1,first
four_sliders,morphant,the most unresourceful<br>person in the world,the most resourceful<br>person in the world,0.21,1,30677,2,neg_positive,not resourceful,resourceful,unresourceful,person,wasteful,Noah,male,1,e2721c414652581d0dc13f04024cf9ac,English,TRUE,8,0.4875,0.31927111136648667,-0.8691672691973116,neg_positive,unresourceful--resourceful,unresourceful,1,first
four_sliders,morphant,the most unresourceful<br>person in the world,the most resourceful<br>person in the world,0.75,1,30677,3,positive,resourceful,resourceful,unresourceful,person,wasteful,Sasha,female,1,e2721c414652581d0dc13f04024cf9ac,English,TRUE,8,0.4875,0.31927111136648667,0.8221852546461057,positive,unresourceful--resourceful,unresourceful,1,first
four_sliders,morphant,the most unresourceful<br>person in the world,the most resourceful<br>person in the world,0.75,1,30677,4,neg_neg_positive,not not resourceful,resourceful,unresourceful,person,wasteful,Greg,male,1,e2721c414652581d0dc13f04024cf9ac,English,TRUE,8,0.4875,0.31927111136648667,0.8221852546461057,neg_neg_positive,unresourceful--resourceful,unresourceful,1,first
four_sliders,morphant,the most ungenerous<br>person in the world,the most generous<br>person in the world,0.12,1,23344,1,neg_positive,not generous,generous,ungenerous,person,stingy,Gabriel,male,1,ea41d3a93e6cca6e01c5fb52ad36bc76,English,TRUE,7,0.476875,0.307115310314851,-1.1620228233953427,neg_positive,ungenerous--generous,ungenerous,1,first
four_sliders,morphant,the most ungenerous<br>person in the world,the most generous<br>person in the world,0.81,1,23344,2,neg_neg_positive,not not generous,generous,ungenerous,person,stingy,Sophia,female,1,ea41d3a93e6cca6e01c5fb52ad36bc76,English,TRUE,7,0.476875,0.307115310314851,1.0846903062516948,neg_neg_positive,ungenerous--generous,ungenerous,1,first
four_sliders,morphant,the most ungenerous<br>person in the world,the most generous<br>person in the world,0.88,1,23344,3,positive,generous,generous,ungenerous,person,stingy,Anthony,male,1,ea41d3a93e6cca6e01c5fb52ad36bc76,English,TRUE,7,0.476875,0.307115310314851,1.3126177252013942,positive,ungenerous--generous,ungenerous,1,first
four_sliders,morphant,the most ungenerous<br>person in the world,the most generous<br>person in the world,0.16,1,23344,4,morphant,ungenerous,generous,ungenerous,person,stingy,Eric,male,1,ea41d3a93e6cca6e01c5fb52ad36bc76,English,TRUE,7,0.476875,0.307115310314851,-1.0317785839955145,antonym,ungenerous--generous,ungenerous,1,first
four_sliders,morphant,the most unaffectionate<br>person in the world,the most affectionate<br>person in the world,0.36,1,17527,1,neg_neg_positive,not not affectionate,affectionate,unaffectionate,person,cold,Nicole,female,1,58c2c7af04ada266329e8b02b8257f6a,English,TRUE,8,0.4395833333333333,0.29356182670655734,-0.2710956469585004,neg_neg_positive,unaffectionate--affectionate,unaffectionate,1,first
four_sliders,morphant,the most unaffectionate<br>person in the world,the most affectionate<br>person in the world,0.15,1,17527,2,morphant,unaffectionate,affectionate,unaffectionate,person,cold,Sasha,female,1,58c2c7af04ada266329e8b02b8257f6a,English,TRUE,8,0.4395833333333333,0.29356182670655734,-0.9864475111840719,antonym,unaffectionate--affectionate,unaffectionate,1,first
four_sliders,morphant,the most unaffectionate<br>person in the world,the most affectionate<br>person in the world,0.82,1,17527,3,positive,affectionate,affectionate,unaffectionate,person,cold,Daniel,male,1,58c2c7af04ada266329e8b02b8257f6a,English,TRUE,8,0.4395833333333333,0.29356182670655734,1.2958655794403708,positive,unaffectionate--affectionate,unaffectionate,1,first
four_sliders,morphant,the most unaffectionate<br>person in the world,the most affectionate<br>person in the world,0.24,1,17527,4,neg_positive,not affectionate,affectionate,unaffectionate,person,cold,Kathleen,female,1,58c2c7af04ada266329e8b02b8257f6a,English,TRUE,8,0.4395833333333333,0.29356182670655734,-0.6798681408016842,neg_positive,unaffectionate--affectionate,unaffectionate,1,first
four_sliders,morphant,the most immature<br>person in the world,the most mature<br>person in the world,0.68,1,21262,1,positive,mature,mature,immature,person,childish,David,male,1,9e03070516129e3156eae072b33cd32d,english,TRUE,10,0.4925,0.20816830343064113,0.9007134943695813,positive,immature--mature,immature,1,first
four_sliders,morphant,the most immature<br>person in the world,the most mature<br>person in the world,0.31,1,21262,2,morphant,immature,mature,immature,person,childish,Cameron,male,1,9e03070516129e3156eae072b33cd32d,english,TRUE,10,0.4925,0.20816830343064113,-0.8766944678530587,antonym,immature--mature,immature,1,first
four_sliders,morphant,the most immature<br>person in the world,the most mature<br>person in the world,0.52,1,21262,3,neg_neg_positive,not not mature,mature,immature,person,childish,Liam,male,1,9e03070516129e3156eae072b33cd32d,english,TRUE,10,0.4925,0.20816830343064113,0.13210464584087198,neg_neg_positive,immature--mature,immature,1,first
four_sliders,morphant,the most immature<br>person in the world,the most mature<br>person in the world,0.46,1,21262,4,neg_positive,not mature,mature,immature,person,childish,Sophia,female,1,9e03070516129e3156eae072b33cd32d,english,TRUE,10,0.4925,0.20816830343064113,-0.1561236723573939,neg_positive,immature--mature,immature,1,first
four_sliders,morphant,the most uninteresting<br>person in the world,the most interesting<br>person in the world,0.16,1,36867,1,morphant,uninteresting,interesting,uninteresting,person,boring,Liam,male,1,f5e3559571193fe509b2afc4d7ba38cf,English,TRUE,10,0.4214583333333333,0.3040505947772462,-0.8599171908375419,antonym,uninteresting--interesting,uninteresting,1,first
four_sliders,morphant,the most uninteresting<br>person in the world,the most interesting<br>person in the world,0.16,1,36867,2,neg_neg_positive,not not interesting,interesting,uninteresting,person,boring,Kim,female,1,f5e3559571193fe509b2afc4d7ba38cf,English,TRUE,10,0.4214583333333333,0.3040505947772462,-0.8599171908375419,neg_neg_positive,uninteresting--interesting,uninteresting,1,first
four_sliders,morphant,the most uninteresting<br>person in the world,the most interesting<br>person in the world,0.82,1,36867,3,positive,interesting,interesting,uninteresting,person,boring,Mia,female,1,f5e3559571193fe509b2afc4d7ba38cf,English,TRUE,10,0.4214583333333333,0.3040505947772462,1.3107741721690975,positive,uninteresting--interesting,uninteresting,1,first
four_sliders,morphant,the most uninteresting<br>person in the world,the most interesting<br>person in the world,0.17,1,36867,4,neg_positive,not interesting,interesting,uninteresting,person,boring,Daniel,male,1,f5e3559571193fe509b2afc4d7ba38cf,English,TRUE,10,0.4214583333333333,0.3040505947772462,-0.8270279277616837,neg_positive,uninteresting--interesting,uninteresting,1,first
four_sliders,morphant,the most unambitious<br>person in the world,the most ambitious<br>person in the world,0.07,1,5942,1,neg_positive,not ambitious,ambitious,unambitious,person,lazy,Michelle,female,1,0ee1a082ea43059dbf8d4c7902baa7a9,english,TRUE,7,0.21625,0.19488812939407935,-0.7504305185477501,neg_positive,unambitious--ambitious,unambitious,1,first
four_sliders,morphant,the most unambitious<br>person in the world,the most ambitious<br>person in the world,0.03,1,5942,2,neg_neg_positive,not not ambitious,ambitious,unambitious,person,lazy,Diana,female,1,0ee1a082ea43059dbf8d4c7902baa7a9,english,TRUE,7,0.21625,0.19488812939407935,-0.9556764723385879,neg_neg_positive,unambitious--ambitious,unambitious,1,first
four_sliders,morphant,the most unambitious<br>person in the world,the most ambitious<br>person in the world,0.54,1,5942,3,positive,ambitious,ambitious,unambitious,person,lazy,Alicia,female,1,0ee1a082ea43059dbf8d4c7902baa7a9,english,TRUE,7,0.21625,0.19488812939407935,1.6612094384945926,positive,unambitious--ambitious,unambitious,1,first
four_sliders,morphant,the most unambitious<br>person in the world,the most ambitious<br>person in the world,0.1,1,5942,4,morphant,unambitious,ambitious,unambitious,person,lazy,Sophia,female,1,0ee1a082ea43059dbf8d4c7902baa7a9,english,TRUE,7,0.21625,0.19488812939407935,-0.596496053204622,antonym,unambitious--ambitious,unambitious,1,first
four_sliders,morphant,the most unpatriotic<br>person in the world,the most patriotic<br>person in the world,0.5,1,26072,1,morphant,unpatriotic,patriotic,unpatriotic,person,traitorous,Kathleen,female,1,7492ffe0c9e0391784041990aa5d7f33,English,TRUE,9,0.470625,0.20142477873727876,0.14583607927560005,antonym,unpatriotic--patriotic,unpatriotic,1,first
four_sliders,morphant,the most unpatriotic<br>person in the world,the most patriotic<br>person in the world,0.51,1,26072,2,neg_neg_positive,not not patriotic,patriotic,unpatriotic,person,traitorous,Tom,male,1,7492ffe0c9e0391784041990aa5d7f33,English,TRUE,9,0.470625,0.20142477873727876,0.19548240413537885,neg_neg_positive,unpatriotic--patriotic,unpatriotic,1,first
four_sliders,morphant,the most unpatriotic<br>person in the world,the most patriotic<br>person in the world,0.49,1,26072,3,positive,patriotic,patriotic,unpatriotic,person,traitorous,Melinda,female,1,7492ffe0c9e0391784041990aa5d7f33,English,TRUE,9,0.470625,0.20142477873727876,0.09618975441582124,positive,unpatriotic--patriotic,unpatriotic,1,first
four_sliders,morphant,the most unpatriotic<br>person in the world,the most patriotic<br>person in the world,0.49,1,26072,4,neg_positive,not patriotic,patriotic,unpatriotic,person,traitorous,Julia,female,1,7492ffe0c9e0391784041990aa5d7f33,English,TRUE,9,0.470625,0.20142477873727876,0.09618975441582124,neg_positive,unpatriotic--patriotic,unpatriotic,1,first
four_sliders,morphant,the most insincere<br>person in the world,the most sincere<br>person in the world,0.71,1,52332,1,positive,sincere,sincere,insincere,person,fake,Nicole,female,1,0c9273155c04aab1a893c4c0359c2d04,english,TRUE,7,0.29520833333333335,0.25315027564025605,1.638519514219744,positive,insincere--sincere,insincere,1,first
four_sliders,morphant,the most insincere<br>person in the world,the most sincere<br>person in the world,0.28,1,52332,2,morphant,insincere,sincere,insincere,person,fake,Alexander,male,1,0c9273155c04aab1a893c4c0359c2d04,english,TRUE,7,0.29520833333333335,0.25315027564025605,-0.060076305644420513,antonym,insincere--sincere,insincere,1,first
four_sliders,morphant,the most insincere<br>person in the world,the most sincere<br>person in the world,0,1,52332,3,neg_neg_positive,not not sincere,sincere,insincere,person,fake,Lee,male,1,0c9273155c04aab1a893c4c0359c2d04,english,TRUE,7,0.29520833333333335,0.25315027564025605,-1.1661386999745744,neg_neg_positive,insincere--sincere,insincere,1,first
four_sliders,morphant,the most insincere<br>person in the world,the most sincere<br>person in the world,0.2,1,52332,4,neg_positive,not sincere,sincere,insincere,person,fake,Sophia,female,1,0c9273155c04aab1a893c4c0359c2d04,english,TRUE,7,0.29520833333333335,0.25315027564025605,-0.3760941325958931,neg_positive,insincere--sincere,insincere,1,first
four_sliders,morphant,the most unreliable<br>person in the world,the most reliable<br>person in the world,0,1,36883,1,neg_positive,not reliable,reliable,unreliable,person,flaky,Andrew,male,1,c440288f60703b55f7126c8b4b7311aa,English,TRUE,9,0.463125,0.4255817357803166,-1.0882163426276898,neg_positive,unreliable--reliable,unreliable,1,first
four_sliders,morphant,the most unreliable<br>person in the world,the most reliable<br>person in the world,0.12,1,36883,2,morphant,unreliable,reliable,unreliable,person,flaky,Tom,male,1,c440288f60703b55f7126c8b4b7311aa,English,TRUE,9,0.463125,0.4255817357803166,-0.8062493550642399,antonym,unreliable--reliable,unreliable,1,first
four_sliders,morphant,the most unreliable<br>person in the world,the most reliable<br>person in the world,0.99,1,36883,3,positive,reliable,reliable,unreliable,person,flaky,Melinda,female,1,c440288f60703b55f7126c8b4b7311aa,English,TRUE,9,0.463125,0.4255817357803166,1.2380113047707726,positive,unreliable--reliable,unreliable,1,first
four_sliders,morphant,the most unreliable<br>person in the world,the most reliable<br>person in the world,0.89,1,36883,4,neg_neg_positive,not not reliable,reliable,unreliable,person,flaky,Noah,male,1,c440288f60703b55f7126c8b4b7311aa,English,TRUE,9,0.463125,0.4255817357803166,1.0030388151345644,neg_neg_positive,unreliable--reliable,unreliable,1,first
four_sliders,morphant,the most immature<br>person in the world,the most mature<br>person in the world,0.84,1,21702,1,positive,mature,mature,immature,person,childish,Emma,female,1,80a32ef6997081d960137eb4f15419da,English,TRUE,9,0.4425,0.3590323875629452,1.107142457810469,positive,immature--mature,immature,1,first
four_sliders,morphant,the most immature<br>person in the world,the most mature<br>person in the world,0.15,1,21702,2,morphant,immature,mature,immature,person,childish,Diana,female,1,80a32ef6997081d960137eb4f15419da,English,TRUE,9,0.4425,0.3590323875629452,-0.8146897331058167,antonym,immature--mature,immature,1,first
four_sliders,morphant,the most immature<br>person in the world,the most mature<br>person in the world,0.35,1,21702,3,neg_positive,not mature,mature,immature,person,childish,Jacob,male,1,80a32ef6997081d960137eb4f15419da,English,TRUE,9,0.4425,0.3590323875629452,-0.2576369241445746,neg_positive,immature--mature,immature,1,first
four_sliders,morphant,the most immature<br>person in the world,the most mature<br>person in the world,0.61,1,21702,4,neg_neg_positive,not not mature,mature,immature,person,childish,Brooke,female,1,80a32ef6997081d960137eb4f15419da,English,TRUE,9,0.4425,0.3590323875629452,0.46653172750504035,neg_neg_positive,immature--mature,immature,1,first
four_sliders,morphant,the most unintelligent<br>person in the world,the most intelligent<br>person in the world,0.23,1,19635,1,neg_positive,not intelligent,intelligent,unintelligent,person,stupid,Monica,female,1,5798834be68584b1bdb46dfa7a95b878,English,TRUE,10,0.34541666666666665,0.26115095767589186,-0.441953832732666,neg_positive,unintelligent--intelligent,unintelligent,1,first
four_sliders,morphant,the most unintelligent<br>person in the world,the most intelligent<br>person in the world,0.73,1,19635,2,positive,intelligent,intelligent,unintelligent,person,stupid,Maya,female,1,5798834be68584b1bdb46dfa7a95b878,English,TRUE,10,0.34541666666666665,0.26115095767589186,1.4726476087084865,positive,unintelligent--intelligent,unintelligent,1,first
four_sliders,morphant,the most unintelligent<br>person in the world,the most intelligent<br>person in the world,0.27,1,19635,3,neg_neg_positive,not not intelligent,intelligent,unintelligent,person,stupid,Mia,female,1,5798834be68584b1bdb46dfa7a95b878,English,TRUE,10,0.34541666666666665,0.26115095767589186,-0.28878571741737374,neg_neg_positive,unintelligent--intelligent,unintelligent,1,first
four_sliders,morphant,the most unintelligent<br>person in the world,the most intelligent<br>person in the world,0.23,1,19635,4,morphant,unintelligent,intelligent,unintelligent,person,stupid,Greg,male,1,5798834be68584b1bdb46dfa7a95b878,English,TRUE,10,0.34541666666666665,0.26115095767589186,-0.441953832732666,antonym,unintelligent--intelligent,unintelligent,1,first
four_sliders,morphant,the most insincere<br>person in the world,the most sincere<br>person in the world,0.01,1,31226,1,morphant,insincere,sincere,insincere,person,fake,Tom,male,1,0e3fa8b8c47c59a9c3030c297d624bb2,English,TRUE,10,0.460625,0.3689110268678355,-1.2215004897683337,antonym,insincere--sincere,insincere,1,first
four_sliders,morphant,the most insincere<br>person in the world,the most sincere<br>person in the world,0.88,1,31226,2,positive,sincere,sincere,insincere,person,fake,Lucas,male,1,0e3fa8b8c47c59a9c3030c297d624bb2,English,TRUE,10,0.460625,0.3689110268678355,1.136791717939739,positive,insincere--sincere,insincere,1,first
four_sliders,morphant,the most insincere<br>person in the world,the most sincere<br>person in the world,0.19,1,31226,3,neg_positive,not sincere,sincere,insincere,person,fake,Maya,female,1,0e3fa8b8c47c59a9c3030c297d624bb2,English,TRUE,10,0.460625,0.3689110268678355,-0.733577964035629,neg_positive,insincere--sincere,insincere,1,first
four_sliders,morphant,the most insincere<br>person in the world,the most sincere<br>person in the world,0.71,1,31226,4,neg_neg_positive,not not sincere,sincere,insincere,person,fake,Emma,female,1,0e3fa8b8c47c59a9c3030c297d624bb2,English,TRUE,10,0.460625,0.3689110268678355,0.6759759991921845,neg_neg_positive,insincere--sincere,insincere,1,first
four_sliders,morphant,the most unhappy<br>person in the world,the most happy<br>person in the world,0.24,2,22378,1,morphant,unhappy,happy,unhappy,person,sad,Jackie,female,1,6e405bdae63736f14976fd81ce33dad0,English,TRUE,9,0.475,0.25886824053453683,-0.9077977256489582,antonym,unhappy--happy,unhappy,2,first
four_sliders,morphant,the most unhappy<br>person in the world,the most happy<br>person in the world,0.24,2,22378,2,neg_positive,not happy,happy,unhappy,person,sad,Angela,female,1,6e405bdae63736f14976fd81ce33dad0,English,TRUE,9,0.475,0.25886824053453683,-0.9077977256489582,neg_positive,unhappy--happy,unhappy,2,first
four_sliders,morphant,the most unhappy<br>person in the world,the most happy<br>person in the world,0.78,2,22378,3,positive,happy,happy,unhappy,person,sad,Eric,male,1,6e405bdae63736f14976fd81ce33dad0,English,TRUE,9,0.475,0.25886824053453683,1.1782055588209885,positive,unhappy--happy,unhappy,2,first
four_sliders,morphant,the most unhappy<br>person in the world,the most happy<br>person in the world,0.75,2,22378,4,neg_neg_positive,not not happy,happy,unhappy,person,sad,Nicole,female,1,6e405bdae63736f14976fd81ce33dad0,English,TRUE,9,0.475,0.25886824053453683,1.062316487461547,neg_neg_positive,unhappy--happy,unhappy,2,first
four_sliders,morphant,the most uninteresting<br>person in the world,the most interesting<br>person in the world,0.18,2,9154,1,neg_positive,not interesting,interesting,uninteresting,person,boring,Sophia,female,1,54f34f4b9fe0451715c567ac2e5d9481,English,TRUE,9,0.41020833333333334,0.30519954813924144,-0.7542879232190253,neg_positive,uninteresting--interesting,uninteresting,2,first
four_sliders,morphant,the most uninteresting<br>person in the world,the most interesting<br>person in the world,0.82,2,9154,2,positive,interesting,interesting,uninteresting,person,boring,Jeremy,male,1,54f34f4b9fe0451715c567ac2e5d9481,English,TRUE,9,0.41020833333333334,0.30519954813924144,1.3427007646803821,positive,uninteresting--interesting,uninteresting,2,first
four_sliders,morphant,the most uninteresting<br>person in the world,the most interesting<br>person in the world,0.13,2,9154,3,morphant,uninteresting,interesting,uninteresting,person,boring,Maya,female,1,54f34f4b9fe0451715c567ac2e5d9481,English,TRUE,9,0.41020833333333334,0.30519954813924144,-0.9181151644611665,antonym,uninteresting--interesting,uninteresting,2,first
four_sliders,morphant,the most uninteresting<br>person in the world,the most interesting<br>person in the world,0.52,2,9154,4,neg_neg_positive,not not interesting,interesting,uninteresting,person,boring,Brooke,female,1,54f34f4b9fe0451715c567ac2e5d9481,English,TRUE,9,0.41020833333333334,0.30519954813924144,0.3597373172275351,neg_neg_positive,uninteresting--interesting,uninteresting,2,first
four_sliders,morphant,the most unhappy<br>person in the world,the most happy<br>person in the world,0.79,2,12204,1,positive,happy,happy,unhappy,person,sad,Stephen,male,1,cdb24dcf9ff9bd218cae3299883fd8a6,English,TRUE,10,0.3797916666666667,0.3072422952885628,1.3351297644358,positive,unhappy--happy,unhappy,2,first
four_sliders,morphant,the most unhappy<br>person in the world,the most happy<br>person in the world,0.24,2,12204,2,neg_positive,not happy,happy,unhappy,person,sad,Lucas,male,1,cdb24dcf9ff9bd218cae3299883fd8a6,English,TRUE,10,0.3797916666666667,0.3072422952885628,-0.4549883554781219,neg_positive,unhappy--happy,unhappy,2,first
four_sliders,morphant,the most unhappy<br>person in the world,the most happy<br>person in the world,0.51,2,12204,3,neg_neg_positive,not not happy,happy,unhappy,person,sad,Eric,male,1,cdb24dcf9ff9bd218cae3299883fd8a6,English,TRUE,10,0.3797916666666667,0.3072422952885628,0.4237969033887125,neg_neg_positive,unhappy--happy,unhappy,2,first
four_sliders,morphant,the most unhappy<br>person in the world,the most happy<br>person in the world,0,2,12204,4,morphant,unhappy,happy,unhappy,person,sad,Mason,male,1,cdb24dcf9ff9bd218cae3299883fd8a6,English,TRUE,10,0.3797916666666667,0.3072422952885628,-1.2361308078041968,antonym,unhappy--happy,unhappy,2,first
four_sliders,morphant,the most unfriendly<br>person in the world,the most friendly<br>person in the world,0.72,2,48691,1,morphant,unfriendly,friendly,unfriendly,person,mean,Maya,female,1,e238b5a840566cda00587f69ad95a225,English,TRUE,10,0.5125,0.3769615364994153,0.5504540381676896,antonym,unfriendly--friendly,unfriendly,2,first
four_sliders,morphant,the most unfriendly<br>person in the world,the most friendly<br>person in the world,0.36,2,48691,2,neg_positive,not friendly,friendly,unfriendly,person,mean,Stephen,male,1,e238b5a840566cda00587f69ad95a225,English,TRUE,10,0.5125,0.3769615364994153,-0.40455055817143437,neg_positive,unfriendly--friendly,unfriendly,2,first
four_sliders,morphant,the most unfriendly<br>person in the world,the most friendly<br>person in the world,0.99,2,48691,3,positive,friendly,friendly,unfriendly,person,mean,Liam,male,1,e238b5a840566cda00587f69ad95a225,English,TRUE,10,0.5125,0.3769615364994153,1.2667074854220324,positive,unfriendly--friendly,unfriendly,2,first
four_sliders,morphant,the most unfriendly<br>person in the world,the most friendly<br>person in the world,0.03,2,48691,4,neg_neg_positive,not not friendly,friendly,unfriendly,person,mean,Mia,female,1,e238b5a840566cda00587f69ad95a225,English,TRUE,10,0.5125,0.3769615364994153,-1.2799714381489644,neg_neg_positive,unfriendly--friendly,unfriendly,2,first
four_sliders,morphant,the most dishonest<br>person in the world,the most honest<br>person in the world,0.52,2,14140,1,neg_neg_positive,not not honest,honest,dishonest,person,deceitful,Brooke,female,1,009d5c1ba95b1bb0b841c4edaaac672b,English,TRUE,10,0.44916666666666666,0.16592530148762386,0.42689892800114465,neg_neg_positive,dishonest--honest,dishonest,2,first
four_sliders,morphant,the most dishonest<br>person in the world,the most honest<br>person in the world,0.31,2,14140,2,neg_positive,not honest,honest,dishonest,person,deceitful,Claire,female,1,009d5c1ba95b1bb0b841c4edaaac672b,English,TRUE,10,0.44916666666666666,0.16592530148762386,-0.8387308350140134,neg_positive,dishonest--honest,dishonest,2,first
four_sliders,morphant,the most dishonest<br>person in the world,the most honest<br>person in the world,0.21,2,14140,3,morphant,dishonest,honest,dishonest,person,deceitful,Michael,male,1,009d5c1ba95b1bb0b841c4edaaac672b,English,TRUE,10,0.44916666666666666,0.16592530148762386,-1.441411674545041,antonym,dishonest--honest,dishonest,2,first
four_sliders,morphant,the most dishonest<br>person in the world,the most honest<br>person in the world,0.68,2,14140,4,positive,honest,honest,dishonest,person,deceitful,Laura,female,1,009d5c1ba95b1bb0b841c4edaaac672b,English,TRUE,10,0.44916666666666666,0.16592530148762386,1.391188271250789,positive,dishonest--honest,dishonest,2,first
four_sliders,morphant,the most dishonest<br>person in the world,the most honest<br>person in the world,0.58,2,12016,1,neg_neg_positive,not not honest,honest,dishonest,person,deceitful,Mia,female,1,e5927e80fc20543641b7d15f5da5a2a3,English,TRUE,9,0.46791666666666665,0.25995873922469076,0.43115816635983933,neg_neg_positive,dishonest--honest,dishonest,2,first
four_sliders,morphant,the most dishonest<br>person in the world,the most honest<br>person in the world,0.22,2,12016,2,morphant,dishonest,honest,dishonest,person,deceitful,Cameron,male,1,e5927e80fc20543641b7d15f5da5a2a3,English,TRUE,9,0.46791666666666665,0.25995873922469076,-0.9536769850710202,antonym,dishonest--honest,dishonest,2,first
four_sliders,morphant,the most dishonest<br>person in the world,the most honest<br>person in the world,0.3,2,12016,3,neg_positive,not honest,honest,dishonest,person,deceitful,Michael,male,1,e5927e80fc20543641b7d15f5da5a2a3,English,TRUE,9,0.46791666666666665,0.25995873922469076,-0.645935840308607,neg_positive,dishonest--honest,dishonest,2,first
four_sliders,morphant,the most dishonest<br>person in the world,the most honest<br>person in the world,0.8,2,12016,4,positive,honest,honest,dishonest,person,deceitful,Stephen,male,1,e5927e80fc20543641b7d15f5da5a2a3,English,TRUE,9,0.46791666666666665,0.25995873922469076,1.2774463144564763,positive,dishonest--honest,dishonest,2,first
four_sliders,morphant,the most unkind<br>person in the world,the most kind<br>person in the world,0.73,2,27552,1,neg_neg_positive,not not kind,kind,unkind,person,cruel,Michelle,female,1,5241c2fe9605cc466afffb02a089f055,English,TRUE,7,0.48854166666666665,0.2718572026864145,0.8881807469043,neg_neg_positive,unkind--kind,unkind,2,first
four_sliders,morphant,the most unkind<br>person in the world,the most kind<br>person in the world,0.23,2,27552,2,neg_positive,not kind,kind,unkind,person,cruel,Noah,male,1,5241c2fe9605cc466afffb02a089f055,English,TRUE,7,0.48854166666666665,0.2718572026864145,-0.9510201094980469,neg_positive,unkind--kind,unkind,2,first
four_sliders,morphant,the most unkind<br>person in the world,the most kind<br>person in the world,0.74,2,27552,3,positive,kind,kind,unkind,person,cruel,Sophia,female,1,5241c2fe9605cc466afffb02a089f055,English,TRUE,7,0.48854166666666665,0.2718572026864145,0.9249647640323471,positive,unkind--kind,unkind,2,first
four_sliders,morphant,the most unkind<br>person in the world,the most kind<br>person in the world,0.24,2,27552,4,morphant,unkind,kind,unkind,person,cruel,Nicole,female,1,5241c2fe9605cc466afffb02a089f055,English,TRUE,7,0.48854166666666665,0.2718572026864145,-0.91423609237,antonym,unkind--kind,unkind,2,first
four_sliders,morphant,the most unreliable<br>person in the world,the most reliable<br>person in the world,0.66,2,22640,1,positive,reliable,reliable,unreliable,person,flaky,Angela,female,1,358d273699fb33216302c04af7b3c9ea,English,TRUE,9,0.3727083333333333,0.2232900945229249,1.2866296970337432,positive,unreliable--reliable,unreliable,2,first
four_sliders,morphant,the most unreliable<br>person in the world,the most reliable<br>person in the world,0.36,2,22640,2,neg_positive,not reliable,reliable,unreliable,person,flaky,Noah,male,1,358d273699fb33216302c04af7b3c9ea,English,TRUE,9,0.3727083333333333,0.2232900945229249,-0.05691400400221772,neg_positive,unreliable--reliable,unreliable,2,first
four_sliders,morphant,the most unreliable<br>person in the world,the most reliable<br>person in the world,0.31,2,22640,3,morphant,unreliable,reliable,unreliable,person,flaky,Tom,male,1,358d273699fb33216302c04af7b3c9ea,English,TRUE,9,0.3727083333333333,0.2232900945229249,-0.2808379541748778,antonym,unreliable--reliable,unreliable,2,first
